name,date,time,time_since_start,vicon_sequence,vicon_time_stamp,vicon_frame_id,vicon_child_frame_id,vicon_translation_x,vicon_translation_y,vicon_translation_z,vicon_rotation_x,vicon_rotation_y,vicon_rotation_z,vicon_rotation_w,int_imu_time_stamp,int_imu_acc_x,int_imu_acc_y,int_imu_acc_z,int_imu_gyro_x,int_imu_gyro_y,int_imu_gyro_z,int_imu_mag_x,int_imu_mag_y,int_imu_mag_z,ext_imu_time_stamp,ext_imu_acc_x,ext_imu_acc_y,ext_imu_acc_z,ext_imu_gyro_x,ext_imu_gyro_y,ext_imu_gyro_z,ext_imu_mag_x,ext_imu_mag_y,ext_imu_mag_z,dji_imu_sequence,dji_imu_time_stamp,dji_imu_frame_id,dji_imu_orientation_x,dji_imu_orientation_y,dji_imu_orientation_z,dji_imu_ang_vel_x,dji_imu_ang_vel_y,dji_imu_ang_vel_z,dji_imu_lin_acc_x,dji_imu_lin_acc_y,dji_imu_lin_acc_z,rc_sequence,rc_time_stamp,rc_frame_id,rc_roll,rc_pitch,rc_yaw,rc_throttle,rc_mode,rc_landing_gear
/home/wc18ny/Desktop/VibrationTest/data_formatlab.csv,20201019,124036.740877,4.9114227294921875e-05,0.0,0.0,0.0,0.0,0.0,0.0,0.0,0.0,0.0,0.0,0.0,51765.0,-0.03,-0.01,-1.0,0.06,-0.06,-0.06,3.9,44.41,-43.66,51774.0,-0.03,0.0,-1.0,0.06,0.0,0.0,3.45,45.01,-44.86,0.0,0.0,0.0,0.0,0.0,0.0,0.0,0.0,0.0,0.0,0.0,0.0,0.0,0.0,0.0,0.0,0.0,0.0,0.0,0.0,0.0
,,124036.744259,0.003412961959838867,0.0,0.0,0.0,0.0,0.0,0.0,0.0,0.0,0.0,0.0,0.0,51783.0,-0.02,0.0,-1.0,0.0,0.06,0.0,2.85,45.46,-45.61,51792.0,-0.03,0.0,-1.01,0.06,0.06,0.0,2.4,44.56,-45.46,0.0,0.0,0.0,0.0,0.0,0.0,0.0,0.0,0.0,0.0,0.0,0.0,0.0,0.0,0.0,0.0,0.0,0.0,0.0,0.0,0.0
,,124036.765073,0.024229764938354492,0.0,0.0,0.0,0.0,0.0,0.0,0.0,0.0,0.0,0.0,0.0,51801.0,-0.02,0.01,-0.99,0.12,0.0,0.06,3.6,44.41,-43.21,51810.0,-0.03,0.0,-1.01,0.12,0.06,-0.06,2.1,45.01,-43.81,0.0,0.0,0.0,0.0,0.0,0.0,0.0,0.0,0.0,0.0,0.0,0.0,0.0,0.0,0.0,0.0,0.0,0.0,0.0,0.0,0.0
,,124036.784268,0.04342532157897949,0.0,0.0,0.0,0.0,0.0,0.0,0.0,0.0,0.0,0.0,0.0,51819.0,-0.02,0.0,-1.0,-0.06,-0.06,0.0,2.7,44.26,-45.46,51828.0,-0.04,-0.0,-1.0,0.06,0.0,0.0,2.7,45.31,-44.86,0.0,0.0,0.0,0.0,0.0,0.0,0.0,0.0,0.0,0.0,0.0,0.0,0.0,0.0,0.0,0.0,0.0,0.0,0.0,0.0,0.0
,,124036.804965,0.06411433219909668,0.0,0.0,0.0,0.0,0.0,0.0,0.0,0.0,0.0,0.0,0.0,51836.0,-0.03,0.0,-1.01,-0.06,-0.06,0.0,3.3,44.41,-44.56,51845.0,-0.02,0.01,-1.0,-0.12,-0.12,0.0,2.25,44.71,-43.96,0.0,0.0,0.0,0.0,0.0,0.0,0.0,0.0,0.0,0.0,0.0,0.0,0.0,0.0,0.0,0.0,0.0,0.0,0.0,0.0,0.0
,,124036.826133,0.08531308174133301,0.0,0.0,0.0,0.0,0.0,0.0,0.0,0.0,0.0,0.0,0.0,51912.0,-0.03,0.0,-1.0,0.0,0.06,0.06,5.4,45.76,-43.96,51921.0,-0.03,0.01,-1.01,0.06,0.0,0.0,4.95,45.76,-45.31,0.0,0.0,0.0,0.0,0.0,0.0,0.0,0.0,0.0,0.0,0.0,0.0,0.0,0.0,0.0,0.0,0.0,0.0,0.0,0.0,0.0
,,124036.846921,0.10610342025756836,0.0,0.0,0.0,0.0,0.0,0.0,0.0,0.0,0.0,0.0,0.0,51929.0,-0.02,0.0,-1.0,-0.06,-0.06,0.0,4.2,44.26,-44.11,51938.0,-0.03,0.01,-1.0,0.0,0.0,0.0,2.55,45.16,-43.96,0.0,0.0,0.0,0.0,0.0,0.0,0.0,0.0,0.0,0.0,0.0,0.0,0.0,0.0,0.0,0.0,0.0,0.0,0.0,0.0,0.0
,,124036.866957,0.12614679336547852,0.0,0.0,0.0,0.0,0.0,0.0,0.0,0.0,0.0,0.0,0.0,51947.0,-0.03,0.0,-1.0,-0.12,-0.12,0.0,3.3,45.16,-42.91,51956.0,-0.03,-0.0,-1.0,0.0,0.0,0.06,2.7,43.81,-45.16,0.0,0.0,0.0,0.0,0.0,0.0,0.0,0.0,0.0,0.0,0.0,0.0,0.0,0.0,0.0,0.0,0.0,0.0,0.0,0.0,0.0
,,124036.886949,0.1461505889892578,0.0,0.0,0.0,0.0,0.0,0.0,0.0,0.0,0.0,0.0,0.0,51965.0,-0.03,-0.01,-1.0,0.0,0.0,0.0,2.7,43.81,-45.16,51974.0,-0.02,0.0,-1.0,0.06,-0.12,-0.06,2.55,44.41,-44.56,0.0,0.0,0.0,0.0,0.0,0.0,0.0,0.0,0.0,0.0,0.0,0.0,0.0,0.0,0.0,0.0,0.0,0.0,0.0,0.0,0.0
,,124036.908705,0.16790270805358887,0.0,0.0,0.0,0.0,0.0,0.0,0.0,0.0,0.0,0.0,0.0,51983.0,-0.04,0.0,-1.0,0.0,0.0,0.0,2.25,45.76,-44.56,51991.0,-0.03,0.01,-1.0,-0.06,-0.06,0.0,4.65,44.41,-43.21,0.0,0.0,0.0,0.0,0.0,0.0,0.0,0.0,0.0,0.0,0.0,0.0,0.0,0.0,0.0,0.0,0.0,0.0,0.0,0.0,0.0
,,124036.923859,0.1830136775970459,0.0,0.0,0.0,0.0,0.0,0.0,0.0,0.0,0.0,0.0,0.0,52000.0,-0.03,0.0,-0.99,-0.06,-0.06,0.06,1.65,45.01,-44.86,52009.0,-0.02,0.0,-1.0,-0.06,-0.12,0.0,2.4,44.26,-46.21,0.0,0.0,0.0,0.0,0.0,0.0,0.0,0.0,0.0,0.0,0.0,0.0,0.0,0.0,0.0,0.0,0.0,0.0,0.0,0.0,0.0
,,124036.944077,0.20324110984802246,0.0,0.0,0.0,0.0,0.0,0.0,0.0,0.0,0.0,0.0,0.0,52018.0,-0.03,0.0,-1.01,0.0,-0.06,0.0,1.5,45.16,-45.31,52027.0,-0.03,0.01,-1.0,0.0,0.0,0.06,3.75,45.61,-44.86,0.0,0.0,0.0,0.0,0.0,0.0,0.0,0.0,0.0,0.0,0.0,0.0,0.0,0.0,0.0,0.0,0.0,0.0,0.0,0.0,0.0
,,124036.966899,0.2260758876800537,0.0,0.0,0.0,0.0,0.0,0.0,0.0,0.0,0.0,0.0,0.0,52036.0,-0.03,0.01,-1.0,0.0,0.0,0.0,3.75,44.56,-46.51,52075.0,-0.03,0.0,-1.0,-0.06,-0.06,0.0,4.65,45.16,-44.56,0.0,0.0,0.0,0.0,0.0,0.0,0.0,0.0,0.0,0.0,0.0,0.0,0.0,0.0,0.0,0.0,0.0,0.0,0.0,0.0,0.0
,,124036.986909,0.24610137939453125,0.0,0.0,0.0,0.0,0.0,0.0,0.0,0.0,0.0,0.0,0.0,52084.0,-0.02,0.0,-1.01,0.0,-0.06,0.06,4.95,45.16,-44.26,52093.0,-0.02,-0.0,-1.01,0.0,0.0,0.06,2.4,44.56,-45.46,0.0,0.0,0.0,0.0,0.0,0.0,0.0,0.0,0.0,0.0,0.0,0.0,0.0,0.0,0.0,0.0,0.0,0.0,0.0,0.0,0.0
,,124037.006987,0.266193151473999,0.0,0.0,0.0,0.0,0.0,0.0,0.0,0.0,0.0,0.0,0.0,52101.0,-0.03,0.0,-1.01,-0.12,-0.12,-0.12,4.35,46.51,-45.01,52110.0,-0.02,0.0,-1.0,0.0,0.0,-0.12,4.5,46.06,-45.16,0.0,0.0,0.0,0.0,0.0,0.0,0.0,0.0,0.0,0.0,0.0,0.0,0.0,0.0,0.0,0.0,0.0,0.0,0.0,0.0,0.0
,,124037.026554,0.2857370376586914,0.0,0.0,0.0,0.0,0.0,0.0,0.0,0.0,0.0,0.0,0.0,52119.0,-0.03,0.01,-1.01,-0.06,-0.06,0.12,2.85,45.76,-45.31,52128.0,-0.02,0.0,-1.0,-0.06,-0.12,-0.12,3.15,42.76,-44.86,0.0,0.0,0.0,0.0,0.0,0.0,0.0,0.0,0.0,0.0,0.0,0.0,0.0,0.0,0.0,0.0,0.0,0.0,0.0,0.0,0.0
,,124037.047243,0.3064262866973877,0.0,0.0,0.0,0.0,0.0,0.0,0.0,0.0,0.0,0.0,0.0,52137.0,-0.03,0.01,-1.01,-0.06,-0.18,0.0,3.45,44.56,-44.11,52146.0,-0.03,0.0,-1.0,-0.12,-0.18,-0.12,2.85,44.11,-45.01,0.0,0.0,0.0,0.0,0.0,0.0,0.0,0.0,0.0,0.0,0.0,0.0,0.0,0.0,0.0,0.0,0.0,0.0,0.0,0.0,0.0
,,124037.066791,0.32598018646240234,0.0,0.0,0.0,0.0,0.0,0.0,0.0,0.0,0.0,0.0,0.0,52156.0,-0.03,0.0,-0.99,-0.06,-0.06,-0.12,3.15,43.51,-46.21,52165.0,-0.03,0.0,-1.0,-0.12,-0.06,0.0,3.15,43.51,-46.21,0.0,0.0,0.0,0.0,0.0,0.0,0.0,0.0,0.0,0.0,0.0,0.0,0.0,0.0,0.0,0.0,0.0,0.0,0.0,0.0,0.0
,,124037.08713,0.3463118076324463,0.0,0.0,0.0,0.0,0.0,0.0,0.0,0.0,0.0,0.0,0.0,52174.0,-0.03,-0.0,-1.0,-0.12,0.0,0.0,2.55,45.46,-45.31,52182.0,-0.02,0.0,-1.02,0.0,0.0,-0.06,3.6,44.71,-45.91,0.0,0.0,0.0,0.0,0.0,0.0,0.0,0.0,0.0,0.0,0.0,0.0,0.0,0.0,0.0,0.0,0.0,0.0,0.0,0.0,0.0
,,124037.106688,0.36586999893188477,0.0,0.0,0.0,0.0,0.0,0.0,0.0,0.0,0.0,0.0,0.0,52191.0,-0.03,0.0,-1.0,0.06,0.06,0.0,2.85,45.16,-44.56,52200.0,-0.03,0.0,-1.0,-0.06,-0.06,0.06,3.15,45.61,-44.11,0.0,0.0,0.0,0.0,0.0,0.0,0.0,0.0,0.0,0.0,0.0,0.0,0.0,0.0,0.0,0.0,0.0,0.0,0.0,0.0,0.0
,,124037.126688,0.3858771324157715,0.0,0.0,0.0,0.0,0.0,0.0,0.0,0.0,0.0,0.0,0.0,52240.0,-0.02,0.0,-1.0,0.0,0.06,0.0,6.0,46.21,-43.21,52249.0,-0.03,0.0,-1.0,-0.06,-0.12,-0.06,3.3,44.41,-43.96,0.0,0.0,0.0,0.0,0.0,0.0,0.0,0.0,0.0,0.0,0.0,0.0,0.0,0.0,0.0,0.0,0.0,0.0,0.0,0.0,0.0
,,124037.148325,0.40753746032714844,0.0,0.0,0.0,0.0,0.0,0.0,0.0,0.0,0.0,0.0,0.0,52258.0,-0.03,-0.0,-1.01,-0.06,-0.12,0.06,4.5,43.81,-44.86,52267.0,-0.03,-0.0,-1.02,0.06,0.0,-0.06,2.85,43.36,-44.56,0.0,0.0,0.0,0.0,0.0,0.0,0.0,0.0,0.0,0.0,0.0,0.0,0.0,0.0,0.0,0.0,0.0,0.0,0.0,0.0,0.0
,,124037.166514,0.42569637298583984,0.0,0.0,0.0,0.0,0.0,0.0,0.0,0.0,0.0,0.0,0.0,52276.0,-0.03,0.0,-1.01,0.06,-0.06,0.0,3.75,44.56,-44.86,52285.0,-0.04,0.0,-1.0,0.0,-0.06,0.0,3.3,44.41,-45.01,0.0,0.0,0.0,0.0,0.0,0.0,0.0,0.0,0.0,0.0,0.0,0.0,0.0,0.0,0.0,0.0,0.0,0.0,0.0,0.0,0.0
,,124037.186721,0.44590210914611816,0.0,0.0,0.0,0.0,0.0,0.0,0.0,0.0,0.0,0.0,0.0,52294.0,-0.03,0.01,-1.0,0.0,-0.12,-0.06,3.3,44.41,-45.01,52303.0,-0.03,0.0,-1.0,-0.06,-0.12,0.0,2.1,43.81,-46.51,0.0,0.0,0.0,0.0,0.0,0.0,0.0,0.0,0.0,0.0,0.0,0.0,0.0,0.0,0.0,0.0,0.0,0.0,0.0,0.0,0.0
,,124037.207029,0.46620774269104004,0.0,0.0,0.0,0.0,0.0,0.0,0.0,0.0,0.0,0.0,0.0,52312.0,-0.03,-0.0,-1.01,-0.06,-0.18,-0.06,2.25,46.21,-44.56,52321.0,-0.03,0.0,-1.01,0.0,0.0,0.06,2.55,45.16,-44.56,0.0,0.0,0.0,0.0,0.0,0.0,0.0,0.0,0.0,0.0,0.0,0.0,0.0,0.0,0.0,0.0,0.0,0.0,0.0,0.0,0.0
,,124037.227186,0.4863777160644531,0.0,0.0,0.0,0.0,0.0,0.0,0.0,0.0,0.0,0.0,0.0,52330.0,-0.03,0.01,-1.0,-0.06,-0.12,0.06,3.3,44.41,-44.26,52339.0,-0.03,0.0,-1.02,0.0,-0.18,0.0,3.75,44.56,-44.86,0.0,0.0,0.0,0.0,0.0,0.0,0.0,0.0,0.0,0.0,0.0,0.0,0.0,0.0,0.0,0.0,0.0,0.0,0.0,0.0,0.0
,,124037.247224,0.506399393081665,0.0,0.0,0.0,0.0,0.0,0.0,0.0,0.0,0.0,0.0,0.0,52348.0,-0.02,0.0,-0.99,0.0,0.0,0.06,3.75,43.51,-45.46,52357.0,-0.03,0.0,-1.0,0.12,0.06,0.0,3.75,45.01,-44.41,0.0,0.0,0.0,0.0,0.0,0.0,0.0,0.0,0.0,0.0,0.0,0.0,0.0,0.0,0.0,0.0,0.0,0.0,0.0,0.0,0.0
,,124037.266917,0.5260984897613525,0.0,0.0,0.0,0.0,0.0,0.0,0.0,0.0,0.0,0.0,0.0,52366.0,-0.03,0.0,-1.0,0.06,0.06,-0.12,2.7,45.61,-44.41,52405.0,-0.03,0.0,-0.99,0.0,0.0,0.06,3.15,45.31,-44.11,0.0,0.0,0.0,0.0,0.0,0.0,0.0,0.0,0.0,0.0,0.0,0.0,0.0,0.0,0.0,0.0,0.0,0.0,0.0,0.0,0.0
,,124037.286565,0.5457479953765869,0.0,0.0,0.0,0.0,0.0,0.0,0.0,0.0,0.0,0.0,0.0,52414.0,-0.03,-0.0,-1.01,0.0,-0.06,-0.06,3.15,45.31,-44.11,52423.0,-0.03,0.0,-0.99,0.12,0.0,0.0,2.55,44.11,-43.96,0.0,0.0,0.0,0.0,0.0,0.0,0.0,0.0,0.0,0.0,0.0,0.0,0.0,0.0,0.0,0.0,0.0,0.0,0.0,0.0,0.0
,,124037.307067,0.5662577152252197,0.0,0.0,0.0,0.0,0.0,0.0,0.0,0.0,0.0,0.0,0.0,52432.0,-0.03,0.01,-0.99,-0.12,-0.18,-0.06,3.75,45.31,-44.86,52441.0,-0.03,0.0,-0.99,0.06,0.0,0.0,3.15,45.01,-44.41,0.0,0.0,0.0,0.0,0.0,0.0,0.0,0.0,0.0,0.0,0.0,0.0,0.0,0.0,0.0,0.0,0.0,0.0,0.0,0.0,0.0
,,124037.326832,0.5860340595245361,0.0,0.0,0.0,0.0,0.0,0.0,0.0,0.0,0.0,0.0,0.0,52450.0,-0.03,0.0,-1.02,0.0,-0.12,-0.06,4.8,44.26,-44.86,52459.0,-0.04,0.01,-1.0,0.0,0.0,-0.06,4.35,44.41,-46.96,0.0,0.0,0.0,0.0,0.0,0.0,0.0,0.0,0.0,0.0,0.0,0.0,0.0,0.0,0.0,0.0,0.0,0.0,0.0,0.0,0.0
,,124037.347213,0.6064169406890869,0.0,0.0,0.0,0.0,0.0,0.0,0.0,0.0,0.0,0.0,0.0,52467.0,-0.04,-0.0,-1.01,0.06,0.06,-0.12,3.15,45.31,-43.06,52477.0,-0.02,0.01,-1.01,-0.06,-0.06,-0.06,2.4,45.61,-43.81,0.0,0.0,0.0,0.0,0.0,0.0,0.0,0.0,0.0,0.0,0.0,0.0,0.0,0.0,0.0,0.0,0.0,0.0,0.0,0.0,0.0
,,124037.366727,0.6259124279022217,0.0,0.0,0.0,0.0,0.0,0.0,0.0,0.0,0.0,0.0,0.0,52486.0,-0.04,0.01,-1.01,-0.06,-0.06,-0.06,3.9,44.11,-44.56,52495.0,-0.03,0.01,-1.01,0.0,-0.06,-0.12,3.9,44.11,-44.56,0.0,0.0,0.0,0.0,0.0,0.0,0.0,0.0,0.0,0.0,0.0,0.0,0.0,0.0,0.0,0.0,0.0,0.0,0.0,0.0,0.0
,,124037.386564,0.6457533836364746,0.0,0.0,0.0,0.0,0.0,0.0,0.0,0.0,0.0,0.0,0.0,52504.0,-0.04,0.01,-0.99,-0.06,-0.12,0.06,3.9,45.16,-44.56,58431.0,-0.03,0.0,-1.0,0.0,0.49,0.12,3.6,44.71,-42.61,0.0,0.0,0.0,0.0,0.0,0.0,0.0,0.0,0.0,0.0,0.0,0.0,0.0,0.0,0.0,0.0,0.0,0.0,0.0,0.0,0.0
,,124037.406992,0.6661734580993652,0.0,0.0,0.0,0.0,0.0,0.0,0.0,0.0,0.0,0.0,0.0,58439.0,-0.04,-0.0,-1.0,-0.06,0.37,0.0,2.85,45.16,-42.91,58448.0,-0.03,-0.0,-0.98,-0.06,0.37,0.0,3.3,44.71,-44.26,0.0,0.0,0.0,0.0,0.0,0.0,0.0,0.0,0.0,0.0,0.0,0.0,0.0,0.0,0.0,0.0,0.0,0.0,0.0,0.0,0.0
,,124037.427374,0.6865675449371338,0.0,0.0,0.0,0.0,0.0,0.0,0.0,0.0,0.0,0.0,0.0,58456.0,-0.02,0.0,-1.0,0.0,0.18,-0.06,3.3,44.71,-44.26,58465.0,-0.03,0.01,-1.01,0.0,0.12,0.0,2.1,45.01,-44.11,0.0,0.0,0.0,0.0,0.0,0.0,0.0,0.0,0.0,0.0,0.0,0.0,0.0,0.0,0.0,0.0,0.0,0.0,0.0,0.0,0.0
,,124037.447112,0.7062945365905762,0.0,0.0,0.0,0.0,0.0,0.0,0.0,0.0,0.0,0.0,0.0,58473.0,-0.03,0.0,-1.01,-0.06,0.06,-0.06,2.1,44.56,-45.46,58482.0,-0.02,0.01,-1.01,0.0,0.18,0.06,2.7,46.06,-43.36,0.0,0.0,0.0,0.0,0.0,0.0,0.0,0.0,0.0,0.0,0.0,0.0,0.0,0.0,0.0,0.0,0.0,0.0,0.0,0.0,0.0
,,124037.467926,0.7271137237548828,0.0,0.0,0.0,0.0,0.0,0.0,0.0,0.0,0.0,0.0,0.0,58490.0,-0.03,0.01,-1.02,0.06,0.18,-0.06,3.6,44.11,-45.31,58499.0,-0.03,0.0,-0.99,0.06,0.18,0.0,3.15,44.56,-45.76,0.0,0.0,0.0,0.0,0.0,0.0,0.0,0.0,0.0,0.0,0.0,0.0,0.0,0.0,0.0,0.0,0.0,0.0,0.0,0.0,0.0
,,124037.486736,0.7459242343902588,0.0,0.0,0.0,0.0,0.0,0.0,0.0,0.0,0.0,0.0,0.0,58508.0,-0.03,0.01,-1.01,0.0,0.12,0.06,3.3,44.11,-43.21,58516.0,-0.03,0.0,-1.0,0.0,0.06,0.12,3.3,44.11,-43.21,0.0,0.0,0.0,0.0,0.0,0.0,0.0,0.0,0.0,0.0,0.0,0.0,0.0,0.0,0.0,0.0,0.0,0.0,0.0,0.0,0.0
,,124037.507144,0.7663426399230957,0.0,0.0,0.0,0.0,0.0,0.0,0.0,0.0,0.0,0.0,0.0,58525.0,-0.03,0.0,-0.99,0.06,0.06,0.06,3.9,43.66,-45.31,58533.0,-0.03,0.0,-1.0,0.0,0.0,-0.06,3.45,44.56,-45.76,0.0,0.0,0.0,0.0,0.0,0.0,0.0,0.0,0.0,0.0,0.0,0.0,0.0,0.0,0.0,0.0,0.0,0.0,0.0,0.0,0.0
,,124037.527429,0.7866294384002686,0.0,0.0,0.0,0.0,0.0,0.0,0.0,0.0,0.0,0.0,0.0,58542.0,-0.02,0.0,-1.0,0.0,0.12,-0.12,3.45,43.81,-44.11,58550.0,-0.03,0.0,-1.01,0.0,0.06,0.0,2.1,43.21,-45.16,0.0,0.0,0.0,0.0,0.0,0.0,0.0,0.0,0.0,0.0,0.0,0.0,0.0,0.0,0.0,0.0,0.0,0.0,0.0,0.0,0.0
,,124037.548031,0.8072247505187988,0.0,0.0,0.0,0.0,0.0,0.0,0.0,0.0,0.0,0.0,0.0,58590.0,-0.03,0.0,-1.01,0.0,0.0,0.0,4.95,44.41,-42.91,58598.0,-0.02,0.01,-1.01,0.06,0.06,-0.06,4.5,45.61,-44.11,0.0,0.0,0.0,0.0,0.0,0.0,0.0,0.0,0.0,0.0,0.0,0.0,0.0,0.0,0.0,0.0,0.0,0.0,0.0,0.0,0.0
,,124037.56713,0.8263123035430908,0.0,0.0,0.0,0.0,0.0,0.0,0.0,0.0,0.0,0.0,0.0,58607.0,-0.03,-0.01,-0.99,0.0,0.06,0.0,4.5,45.61,-44.11,58615.0,-0.03,-0.01,-1.01,0.0,0.0,-0.06,3.75,45.31,-45.16,0.0,0.0,0.0,0.0,0.0,0.0,0.0,0.0,0.0,0.0,0.0,0.0,0.0,0.0,0.0,0.0,0.0,0.0,0.0,0.0,0.0
,,124037.586306,0.8454887866973877,0.0,0.0,0.0,0.0,0.0,0.0,0.0,0.0,0.0,0.0,0.0,58623.0,-0.03,0.01,-1.0,0.0,0.0,0.0,2.85,44.71,-45.61,58632.0,-0.03,0.01,-1.0,0.06,-0.06,-0.06,3.3,44.71,-45.01,0.0,0.0,0.0,0.0,0.0,0.0,0.0,0.0,0.0,0.0,0.0,0.0,0.0,0.0,0.0,0.0,0.0,0.0,0.0,0.0,0.0
,,124037.60675,0.8659327030181885,0.0,0.0,0.0,0.0,0.0,0.0,0.0,0.0,0.0,0.0,0.0,58640.0,-0.02,0.0,-1.01,0.0,0.0,0.0,2.25,44.41,-43.96,58649.0,-0.02,-0.0,-1.01,0.06,0.06,0.0,3.3,45.16,-45.01,0.0,0.0,0.0,0.0,0.0,0.0,0.0,0.0,0.0,0.0,0.0,0.0,0.0,0.0,0.0,0.0,0.0,0.0,0.0,0.0,0.0
,,124037.626727,0.885906457901001,0.0,0.0,0.0,0.0,0.0,0.0,0.0,0.0,0.0,0.0,0.0,58657.0,-0.03,0.01,-1.01,-0.06,0.0,0.0,3.3,45.16,-45.01,58665.0,-0.03,-0.0,-1.0,-0.06,-0.06,0.06,3.75,44.26,-45.16,0.0,0.0,0.0,0.0,0.0,0.0,0.0,0.0,0.0,0.0,0.0,0.0,0.0,0.0,0.0,0.0,0.0,0.0,0.0,0.0,0.0
,,124037.646893,0.90608811378479,0.0,0.0,0.0,0.0,0.0,0.0,0.0,0.0,0.0,0.0,0.0,58674.0,-0.03,-0.0,-1.0,0.12,0.12,0.06,4.95,46.21,-44.56,58683.0,-0.03,0.0,-1.0,0.06,0.06,0.0,3.15,44.26,-43.81,0.0,0.0,0.0,0.0,0.0,0.0,0.0,0.0,0.0,0.0,0.0,0.0,0.0,0.0,0.0,0.0,0.0,0.0,0.0,0.0,0.0
,,124037.666891,0.9260938167572021,0.0,0.0,0.0,0.0,0.0,0.0,0.0,0.0,0.0,0.0,0.0,58691.0,-0.03,-0.0,-0.99,-0.06,-0.06,-0.06,3.15,44.56,-45.46,58700.0,-0.03,-0.0,-0.99,-0.06,-0.12,0.06,3.15,44.26,-46.21,0.0,0.0,0.0,0.0,0.0,0.0,0.0,0.0,0.0,0.0,0.0,0.0,0.0,0.0,0.0,0.0,0.0,0.0,0.0,0.0,0.0
,,124037.686751,0.945934534072876,0.0,0.0,0.0,0.0,0.0,0.0,0.0,0.0,0.0,0.0,0.0,58709.0,-0.04,-0.0,-1.01,-0.06,-0.06,0.12,2.4,45.61,-45.46,58750.0,-0.02,-0.0,-1.01,0.12,0.0,0.0,4.95,43.66,-43.21,0.0,0.0,0.0,0.0,0.0,0.0,0.0,0.0,0.0,0.0,0.0,0.0,0.0,0.0,0.0,0.0,0.0,0.0,0.0,0.0,0.0
,,124037.707444,0.966637134552002,0.0,0.0,0.0,0.0,0.0,0.0,0.0,0.0,0.0,0.0,0.0,58758.0,-0.02,0.0,-1.0,0.0,-0.12,-0.12,3.9,46.21,-43.66,58767.0,-0.03,0.01,-0.99,0.06,0.0,0.0,3.9,46.21,-43.66,0.0,0.0,0.0,0.0,0.0,0.0,0.0,0.0,0.0,0.0,0.0,0.0,0.0,0.0,0.0,0.0,0.0,0.0,0.0,0.0,0.0
,,124037.726425,0.98561692237854,0.0,0.0,0.0,0.0,0.0,0.0,0.0,0.0,0.0,0.0,0.0,58775.0,-0.03,0.01,-1.0,-0.06,-0.06,0.0,3.3,45.76,-45.61,58784.0,-0.02,-0.0,-1.01,0.06,0.0,0.06,2.55,44.41,-45.61,0.0,0.0,0.0,0.0,0.0,0.0,0.0,0.0,0.0,0.0,0.0,0.0,0.0,0.0,0.0,0.0,0.0,0.0,0.0,0.0,0.0
,,124037.746824,1.006014347076416,0.0,0.0,0.0,0.0,0.0,0.0,0.0,0.0,0.0,0.0,0.0,58792.0,-0.03,0.01,-1.0,-0.12,-0.12,-0.06,2.55,43.66,-44.26,58801.0,-0.04,-0.0,-1.02,-0.06,-0.12,0.0,4.5,44.26,-45.46,0.0,0.0,0.0,0.0,0.0,0.0,0.0,0.0,0.0,0.0,0.0,0.0,0.0,0.0,0.0,0.0,0.0,0.0,0.0,0.0,0.0
,,124037.766701,1.0258948802947998,0.0,0.0,0.0,0.0,0.0,0.0,0.0,0.0,0.0,0.0,0.0,58809.0,-0.03,0.0,-1.01,0.0,0.06,0.0,4.5,44.26,-44.41,58818.0,-0.02,-0.0,-1.0,0.0,0.0,0.0,1.8,44.11,-45.01,0.0,0.0,0.0,0.0,0.0,0.0,0.0,0.0,0.0,0.0,0.0,0.0,0.0,0.0,0.0,0.0,0.0,0.0,0.0,0.0,0.0
,,124037.78658,1.0457699298858643,0.0,0.0,0.0,0.0,0.0,0.0,0.0,0.0,0.0,0.0,0.0,58826.0,-0.03,-0.0,-1.0,-0.06,0.06,-0.06,1.8,44.11,-45.01,58835.0,-0.03,-0.0,-0.99,-0.06,-0.06,0.0,3.6,43.36,-45.61,0.0,0.0,0.0,0.0,0.0,0.0,0.0,0.0,0.0,0.0,0.0,0.0,0.0,0.0,0.0,0.0,0.0,0.0,0.0,0.0,0.0
,,124037.806686,1.0658669471740723,0.0,0.0,0.0,0.0,0.0,0.0,0.0,0.0,0.0,0.0,0.0,58843.0,-0.03,0.0,-1.0,-0.06,-0.06,0.0,2.25,44.11,-45.01,58852.0,-0.03,-0.0,-1.02,-0.06,-0.06,0.0,3.75,45.61,-44.86,0.0,0.0,0.0,0.0,0.0,0.0,0.0,0.0,0.0,0.0,0.0,0.0,0.0,0.0,0.0,0.0,0.0,0.0,0.0,0.0,0.0
,,124037.826864,1.086045503616333,0.0,0.0,0.0,0.0,0.0,0.0,0.0,0.0,0.0,0.0,0.0,58860.0,-0.03,0.01,-1.01,0.0,0.06,0.0,2.4,44.56,-45.76,58869.0,-0.03,0.0,-1.0,-0.12,-0.06,-0.06,2.7,43.51,-44.41,0.0,0.0,0.0,0.0,0.0,0.0,0.0,0.0,0.0,0.0,0.0,0.0,0.0,0.0,0.0,0.0,0.0,0.0,0.0,0.0,0.0
,,124037.854709,1.1139037609100342,0.0,0.0,0.0,0.0,0.0,0.0,0.0,0.0,0.0,0.0,0.0,58909.0,-0.03,-0.0,-1.01,0.06,0.12,0.12,3.75,44.26,-42.76,58917.0,-0.02,0.01,-1.02,-0.12,-0.06,-0.06,3.75,45.01,-43.81,0.0,0.0,0.0,0.0,0.0,0.0,0.0,0.0,0.0,0.0,0.0,0.0,0.0,0.0,0.0,0.0,0.0,0.0,0.0,0.0,0.0
,,124037.871107,1.13028883934021,0.0,0.0,0.0,0.0,0.0,0.0,0.0,0.0,0.0,0.0,0.0,58926.0,-0.03,0.01,-1.01,0.0,0.0,-0.06,3.75,45.01,-43.81,58935.0,-0.03,-0.0,-0.99,0.0,0.0,-0.06,4.65,44.71,-44.56,0.0,0.0,0.0,0.0,0.0,0.0,0.0,0.0,0.0,0.0,0.0,0.0,0.0,0.0,0.0,0.0,0.0,0.0,0.0,0.0,0.0
,,124037.888407,1.1475896835327148,0.0,0.0,0.0,0.0,0.0,0.0,0.0,0.0,0.0,0.0,0.0,58943.0,-0.03,0.0,-1.0,0.06,0.0,-0.06,4.35,45.76,-45.01,58951.0,-0.03,-0.01,-0.99,0.12,0.06,0.12,3.3,44.41,-44.26,0.0,0.0,0.0,0.0,0.0,0.0,0.0,0.0,0.0,0.0,0.0,0.0,0.0,0.0,0.0,0.0,0.0,0.0,0.0,0.0,0.0
,,124037.90825,1.16744065284729,0.0,0.0,0.0,0.0,0.0,0.0,0.0,0.0,0.0,0.0,0.0,58960.0,-0.03,-0.01,-1.0,-0.06,-0.12,-0.06,4.5,43.21,-45.76,58969.0,-0.02,0.01,-1.0,0.06,0.12,-0.12,3.6,44.11,-44.56,0.0,0.0,0.0,0.0,0.0,0.0,0.0,0.0,0.0,0.0,0.0,0.0,0.0,0.0,0.0,0.0,0.0,0.0,0.0,0.0,0.0
,,124037.926951,1.1861333847045898,0.0,0.0,0.0,0.0,0.0,0.0,0.0,0.0,0.0,0.0,0.0,58977.0,-0.03,0.0,-1.0,0.0,0.06,-0.06,3.9,44.41,-43.96,58986.0,-0.02,0.0,-1.01,-0.06,-0.06,0.18,3.9,44.41,-43.96,0.0,0.0,0.0,0.0,0.0,0.0,0.0,0.0,0.0,0.0,0.0,0.0,0.0,0.0,0.0,0.0,0.0,0.0,0.0,0.0,0.0
,,124037.946869,1.2060518264770508,0.0,0.0,0.0,0.0,0.0,0.0,0.0,0.0,0.0,0.0,0.0,58995.0,-0.04,-0.01,-1.0,0.0,0.12,0.0,2.55,43.66,-43.96,59003.0,-0.03,-0.0,-1.0,0.0,0.0,0.06,4.5,43.81,-45.46,0.0,0.0,0.0,0.0,0.0,0.0,0.0,0.0,0.0,0.0,0.0,0.0,0.0,0.0,0.0,0.0,0.0,0.0,0.0,0.0,0.0
,,124037.967003,1.2261848449707031,0.0,0.0,0.0,0.0,0.0,0.0,0.0,0.0,0.0,0.0,0.0,59011.0,-0.02,-0.0,-1.0,0.0,0.0,0.0,3.3,44.71,-44.26,59020.0,-0.04,0.0,-1.01,0.06,-0.12,-0.18,4.5,43.21,-44.86,0.0,0.0,0.0,0.0,0.0,0.0,0.0,0.0,0.0,0.0,0.0,0.0,0.0,0.0,0.0,0.0,0.0,0.0,0.0,0.0,0.0
,,124038.006046,1.2652289867401123,0.0,0.0,0.0,0.0,0.0,0.0,0.0,0.0,0.0,0.0,0.0,59028.0,-0.03,0.0,-1.01,-0.06,-0.12,0.06,3.75,46.36,-44.11,59069.0,-0.03,0.0,-0.99,-0.06,-0.12,0.0,6.45,44.71,-43.66,0.0,0.0,0.0,0.0,0.0,0.0,0.0,0.0,0.0,0.0,0.0,0.0,0.0,0.0,0.0,0.0,0.0,0.0,0.0,0.0,0.0
,,124038.023173,1.2823517322540283,0.0,0.0,0.0,0.0,0.0,0.0,0.0,0.0,0.0,0.0,0.0,59078.0,-0.03,-0.0,-1.0,-0.06,-0.06,-0.06,2.55,45.76,-45.31,59086.0,-0.03,-0.0,-0.99,0.06,0.0,0.06,2.55,45.76,-45.31,0.0,0.0,0.0,0.0,0.0,0.0,0.0,0.0,0.0,0.0,0.0,0.0,0.0,0.0,0.0,0.0,0.0,0.0,0.0,0.0,0.0
,,124038.040453,1.299638271331787,0.0,0.0,0.0,0.0,0.0,0.0,0.0,0.0,0.0,0.0,0.0,59095.0,-0.03,0.01,-1.0,-0.06,-0.06,0.0,3.6,45.46,-44.56,59103.0,-0.03,0.01,-0.99,-0.06,-0.06,0.0,2.4,43.51,-45.16,0.0,0.0,0.0,0.0,0.0,0.0,0.0,0.0,0.0,0.0,0.0,0.0,0.0,0.0,0.0,0.0,0.0,0.0,0.0,0.0,0.0
,,124038.057213,1.316399097442627,0.0,0.0,0.0,0.0,0.0,0.0,0.0,0.0,0.0,0.0,0.0,59112.0,-0.03,0.0,-1.01,0.0,0.0,0.0,3.9,45.16,-44.26,59120.0,-0.03,0.01,-1.01,0.06,0.0,0.06,2.1,44.56,-44.86,0.0,0.0,0.0,0.0,0.0,0.0,0.0,0.0,0.0,0.0,0.0,0.0,0.0,0.0,0.0,0.0,0.0,0.0,0.0,0.0,0.0
,,124038.074287,1.3334693908691406,0.0,0.0,0.0,0.0,0.0,0.0,0.0,0.0,0.0,0.0,0.0,59129.0,-0.03,0.01,-1.0,-0.06,-0.12,0.0,3.75,45.61,-44.86,59137.0,-0.03,0.0,-1.01,0.06,0.0,0.12,3.3,45.16,-44.26,0.0,0.0,0.0,0.0,0.0,0.0,0.0,0.0,0.0,0.0,0.0,0.0,0.0,0.0,0.0,0.0,0.0,0.0,0.0,0.0,0.0
,,124038.091836,1.351020097732544,0.0,0.0,0.0,0.0,0.0,0.0,0.0,0.0,0.0,0.0,0.0,59146.0,-0.02,0.0,-1.0,-0.06,-0.12,-0.06,3.3,45.16,-44.26,59155.0,-0.03,-0.0,-1.01,-0.06,0.0,0.06,1.8,45.16,-45.31,0.0,0.0,0.0,0.0,0.0,0.0,0.0,0.0,0.0,0.0,0.0,0.0,0.0,0.0,0.0,0.0,0.0,0.0,0.0,0.0,0.0
,,124038.108303,1.367488145828247,0.0,0.0,0.0,0.0,0.0,0.0,0.0,0.0,0.0,0.0,0.0,59163.0,-0.03,-0.01,-1.01,-0.06,0.0,0.0,3.45,44.56,-45.16,59172.0,-0.02,0.0,-1.0,-0.06,0.0,0.0,3.75,43.51,-45.46,0.0,0.0,0.0,0.0,0.0,0.0,0.0,0.0,0.0,0.0,0.0,0.0,0.0,0.0,0.0,0.0,0.0,0.0,0.0,0.0,0.0
,,124038.126233,1.3854105472564697,0.0,0.0,0.0,0.0,0.0,0.0,0.0,0.0,0.0,0.0,0.0,59180.0,-0.02,0.0,-0.99,0.0,0.0,-0.06,4.2,44.56,-45.16,59188.0,-0.03,-0.0,-1.0,0.06,-0.12,0.06,3.6,43.66,-44.56,0.0,0.0,0.0,0.0,0.0,0.0,0.0,0.0,0.0,0.0,0.0,0.0,0.0,0.0,0.0,0.0,0.0,0.0,0.0,0.0,0.0
,,124038.172007,1.4312028884887695,0.0,0.0,0.0,0.0,0.0,0.0,0.0,0.0,0.0,0.0,0.0,59226.0,-0.03,-0.0,-1.01,-0.06,-0.06,0.06,4.5,44.56,-43.36,59235.0,-0.03,0.0,-1.0,0.06,0.12,0.0,4.2,45.01,-43.36,0.0,0.0,0.0,0.0,0.0,0.0,0.0,0.0,0.0,0.0,0.0,0.0,0.0,0.0,0.0,0.0,0.0,0.0,0.0,0.0,0.0
,,124038.18895,1.4481432437896729,0.0,0.0,0.0,0.0,0.0,0.0,0.0,0.0,0.0,0.0,0.0,59244.0,-0.02,0.0,-1.0,0.0,-0.06,-0.06,1.5,45.16,-44.56,59252.0,-0.03,0.0,-1.0,-0.06,-0.12,0.0,2.4,45.01,-44.41,0.0,0.0,0.0,0.0,0.0,0.0,0.0,0.0,0.0,0.0,0.0,0.0,0.0,0.0,0.0,0.0,0.0,0.0,0.0,0.0,0.0
,,124038.205993,1.4651708602905273,0.0,0.0,0.0,0.0,0.0,0.0,0.0,0.0,0.0,0.0,0.0,59261.0,-0.03,0.01,-1.0,0.0,-0.12,-0.12,2.1,45.01,-43.81,59269.0,-0.02,0.0,-1.02,0.0,0.0,-0.06,3.3,45.16,-45.01,0.0,0.0,0.0,0.0,0.0,0.0,0.0,0.0,0.0,0.0,0.0,0.0,0.0,0.0,0.0,0.0,0.0,0.0,0.0,0.0,0.0
,,124038.223602,1.4827799797058105,0.0,0.0,0.0,0.0,0.0,0.0,0.0,0.0,0.0,0.0,0.0,59278.0,-0.02,-0.0,-1.0,-0.06,-0.12,0.0,2.85,44.11,-44.26,59286.0,-0.03,0.0,-1.0,0.0,-0.06,0.06,2.85,44.11,-44.26,0.0,0.0,0.0,0.0,0.0,0.0,0.0,0.0,0.0,0.0,0.0,0.0,0.0,0.0,0.0,0.0,0.0,0.0,0.0,0.0,0.0
,,124038.240593,1.4997777938842773,0.0,0.0,0.0,0.0,0.0,0.0,0.0,0.0,0.0,0.0,0.0,59295.0,-0.03,-0.01,-0.99,-0.06,-0.06,0.06,3.75,43.51,-44.11,59303.0,-0.02,0.01,-1.01,-0.06,-0.12,0.06,4.35,45.46,-42.91,0.0,0.0,0.0,0.0,0.0,0.0,0.0,0.0,0.0,0.0,0.0,0.0,0.0,0.0,0.0,0.0,0.0,0.0,0.0,0.0,0.0
,,124038.257661,1.516834020614624,0.0,0.0,0.0,0.0,0.0,0.0,0.0,0.0,0.0,0.0,0.0,59312.0,-0.02,0.01,-1.0,-0.06,-0.06,0.06,3.6,46.51,-43.96,59321.0,-0.03,-0.01,-1.0,-0.12,-0.12,0.0,3.15,45.31,-44.86,0.0,0.0,0.0,0.0,0.0,0.0,0.0,0.0,0.0,0.0,0.0,0.0,0.0,0.0,0.0,0.0,0.0,0.0,0.0,0.0,0.0
,,124038.275039,1.5342254638671875,0.0,0.0,0.0,0.0,0.0,0.0,0.0,0.0,0.0,0.0,0.0,59329.0,-0.03,0.0,-1.01,0.06,0.06,-0.06,2.25,43.06,-45.01,59338.0,-0.03,0.0,-1.0,-0.12,-0.12,0.0,2.7,43.21,-46.21,0.0,0.0,0.0,0.0,0.0,0.0,0.0,0.0,0.0,0.0,0.0,0.0,0.0,0.0,0.0,0.0,0.0,0.0,0.0,0.0,0.0
,,124038.323191,1.5823800563812256,0.0,0.0,0.0,0.0,0.0,0.0,0.0,0.0,0.0,0.0,0.0,59347.0,-0.02,0.0,-1.0,-0.06,-0.06,-0.06,2.7,43.21,-46.21,59386.0,-0.03,0.0,-1.01,-0.06,-0.18,-0.06,4.5,43.51,-44.86,0.0,0.0,0.0,0.0,0.0,0.0,0.0,0.0,0.0,0.0,0.0,0.0,0.0,0.0,0.0,0.0,0.0,0.0,0.0,0.0,0.0
,,124038.340156,1.5993449687957764,0.0,0.0,0.0,0.0,0.0,0.0,0.0,0.0,0.0,0.0,0.0,59394.0,-0.03,-0.0,-0.99,0.06,0.0,0.12,4.2,45.31,-44.41,59403.0,-0.03,0.0,-1.01,-0.06,-0.06,-0.06,2.7,44.56,-45.76,0.0,0.0,0.0,0.0,0.0,0.0,0.0,0.0,0.0,0.0,0.0,0.0,0.0,0.0,0.0,0.0,0.0,0.0,0.0,0.0,0.0
,,124038.357531,1.616736888885498,0.0,0.0,0.0,0.0,0.0,0.0,0.0,0.0,0.0,0.0,0.0,59411.0,-0.03,0.0,-1.0,-0.12,-0.24,0.06,2.85,45.16,-43.96,59420.0,-0.03,-0.0,-1.01,-0.06,-0.18,-0.18,3.3,45.76,-44.26,0.0,0.0,0.0,0.0,0.0,0.0,0.0,0.0,0.0,0.0,0.0,0.0,0.0,0.0,0.0,0.0,0.0,0.0,0.0,0.0,0.0
,,124038.374037,1.6332128047943115,0.0,0.0,0.0,0.0,0.0,0.0,0.0,0.0,0.0,0.0,0.0,59429.0,-0.03,0.0,-1.0,0.06,0.0,0.0,2.7,44.26,-45.16,59437.0,-0.03,-0.0,-1.0,0.0,0.0,-0.06,2.7,45.01,-46.21,0.0,0.0,0.0,0.0,0.0,0.0,0.0,0.0,0.0,0.0,0.0,0.0,0.0,0.0,0.0,0.0,0.0,0.0,0.0,0.0,0.0
,,124038.391784,1.6509675979614258,0.0,0.0,0.0,0.0,0.0,0.0,0.0,0.0,0.0,0.0,0.0,59446.0,0.03,0.01,-1.01,0.24,-1.28,7.44,2.7,45.01,-46.21,59454.0,-0.06,0.0,-1.0,0.43,-1.16,12.8,2.25,44.71,-45.01,0.0,0.0,0.0,0.0,0.0,0.0,0.0,0.0,0.0,0.0,0.0,0.0,0.0,0.0,0.0,0.0,0.0,0.0,0.0,0.0,0.0
,,124038.409059,1.6682498455047607,0.0,0.0,0.0,0.0,0.0,0.0,0.0,0.0,0.0,0.0,0.0,59463.0,-0.05,0.02,-0.98,0.12,-0.61,2.99,2.7,44.56,-43.81,59472.0,-0.02,-0.01,-1.02,0.06,0.24,1.16,3.75,46.06,-43.36,0.0,0.0,0.0,0.0,0.0,0.0,0.0,0.0,0.0,0.0,0.0,0.0,0.0,0.0,0.0,0.0,0.0,0.0,0.0,0.0,0.0
,,124038.426529,1.685713291168213,0.0,0.0,0.0,0.0,0.0,0.0,0.0,0.0,0.0,0.0,0.0,59480.0,-0.01,-0.05,-1.01,-0.06,-0.37,1.46,4.2,44.56,-44.86,59489.0,-0.01,0.04,-1.02,-0.18,0.91,1.71,2.7,44.56,-44.41,0.0,0.0,0.0,0.0,0.0,0.0,0.0,0.0,0.0,0.0,0.0,0.0,0.0,0.0,0.0,0.0,0.0,0.0,0.0,0.0,0.0
,,124038.444091,1.703279972076416,0.0,0.0,0.0,0.0,0.0,0.0,0.0,0.0,0.0,0.0,0.0,59498.0,-0.06,-0.05,-0.96,0.0,-0.79,3.66,3.9,46.21,-44.56,59506.0,-0.0,-0.0,-1.01,-0.06,6.4,-1.22,3.9,46.21,-44.56,0.0,0.0,0.0,0.0,0.0,0.0,0.0,0.0,0.0,0.0,0.0,0.0,0.0,0.0,0.0,0.0,0.0,0.0,0.0,0.0,0.0
,,124038.490429,1.7496185302734375,0.0,0.0,0.0,0.0,0.0,0.0,0.0,0.0,0.0,0.0,0.0,59545.0,-0.07,-0.03,-1.01,0.0,0.18,-6.83,4.95,45.16,-44.26,59553.0,-0.01,0.08,-1.02,0.24,5.06,-4.02,4.8,46.06,-42.46,0.0,0.0,0.0,0.0,0.0,0.0,0.0,0.0,0.0,0.0,0.0,0.0,0.0,0.0,0.0,0.0,0.0,0.0,0.0,0.0,0.0
,,124038.507838,1.7670223712921143,0.0,0.0,0.0,0.0,0.0,0.0,0.0,0.0,0.0,0.0,0.0,59562.0,-0.05,0.02,-0.99,0.0,-0.91,0.3,3.6,44.71,-44.26,59570.0,-0.04,0.02,-1.01,-0.24,-0.06,-3.6,4.2,43.21,-44.41,0.0,0.0,0.0,0.0,0.0,0.0,0.0,0.0,0.0,0.0,0.0,0.0,0.0,0.0,0.0,0.0,0.0,0.0,0.0,0.0,0.0
,,124038.52482,1.7840039730072021,0.0,0.0,0.0,0.0,0.0,0.0,0.0,0.0,0.0,0.0,0.0,59579.0,-0.04,0.01,-1.0,0.0,-0.79,-3.54,3.45,43.81,-45.46,59588.0,-0.04,0.02,-1.01,0.12,-0.98,-6.77,3.6,44.71,-45.31,0.0,0.0,0.0,0.0,0.0,0.0,0.0,0.0,0.0,0.0,0.0,0.0,0.0,0.0,0.0,0.0,0.0,0.0,0.0,0.0,0.0
,,124038.542324,1.801509141921997,0.0,0.0,0.0,0.0,0.0,0.0,0.0,0.0,0.0,0.0,0.0,59596.0,-0.02,0.04,-1.0,-0.49,-1.04,-7.01,3.6,44.71,-45.31,59605.0,-0.01,0.09,-1.02,-0.49,-1.28,-4.09,3.15,45.31,-44.11,0.0,0.0,0.0,0.0,0.0,0.0,0.0,0.0,0.0,0.0,0.0,0.0,0.0,0.0,0.0,0.0,0.0,0.0,0.0,0.0,0.0
,,124038.559854,1.8190386295318604,0.0,0.0,0.0,0.0,0.0,0.0,0.0,0.0,0.0,0.0,0.0,59614.0,-0.0,0.16,-0.95,-0.49,-1.4,4.7,4.2,44.26,-45.46,59623.0,-0.04,0.07,-0.85,0.85,-3.66,12.44,3.45,46.06,-45.46,0.0,0.0,0.0,0.0,0.0,0.0,0.0,0.0,0.0,0.0,0.0,0.0,0.0,0.0,0.0,0.0,0.0,0.0,0.0,0.0,0.0
,,124038.577449,1.836634635925293,0.0,0.0,0.0,0.0,0.0,0.0,0.0,0.0,0.0,0.0,0.0,59631.0,-0.04,0.07,-1.07,-0.85,2.62,8.9,4.5,44.56,-45.76,59640.0,-0.02,-0.15,-1.01,0.91,1.34,3.11,3.9,45.16,-45.01,0.0,0.0,0.0,0.0,0.0,0.0,0.0,0.0,0.0,0.0,0.0,0.0,0.0,0.0,0.0,0.0,0.0,0.0,0.0,0.0,0.0
,,124038.594888,1.8540840148925781,0.0,0.0,0.0,0.0,0.0,0.0,0.0,0.0,0.0,0.0,0.0,59649.0,0.01,-0.14,-0.94,0.0,-2.62,14.57,3.45,44.26,-45.16,59658.0,-0.04,-0.04,-0.99,0.85,0.12,25.73,1.8,44.11,-46.96,0.0,0.0,0.0,0.0,0.0,0.0,0.0,0.0,0.0,0.0,0.0,0.0,0.0,0.0,0.0,0.0,0.0,0.0,0.0,0.0,0.0
,,124038.643594,1.9027845859527588,0.0,0.0,0.0,0.0,0.0,0.0,0.0,0.0,0.0,0.0,0.0,59666.0,-0.09,-0.01,-1.04,1.52,-3.29,39.09,1.8,44.11,-46.96,59706.0,-0.03,0.04,-1.05,1.77,-7.99,46.89,2.25,43.06,-45.61,0.0,0.0,0.0,0.0,0.0,0.0,0.0,0.0,0.0,0.0,0.0,0.0,0.0,0.0,0.0,0.0,0.0,0.0,0.0,0.0,0.0
,,124038.661119,1.9203133583068848,0.0,0.0,0.0,0.0,0.0,0.0,0.0,0.0,0.0,0.0,0.0,59715.0,-0.02,0.05,-1.02,1.22,-17.44,36.89,1.2,43.66,-44.56,59724.0,-0.03,0.01,-1.0,-0.18,-18.23,20.18,3.15,45.31,-45.16,0.0,0.0,0.0,0.0,0.0,0.0,0.0,0.0,0.0,0.0,0.0,0.0,0.0,0.0,0.0,0.0,0.0,0.0,0.0,0.0,0.0
,,124038.678539,1.93772554397583,0.0,0.0,0.0,0.0,0.0,0.0,0.0,0.0,0.0,0.0,0.0,59732.0,-0.04,0.05,-0.99,-0.3,-17.56,7.93,0.0,43.81,-45.16,59741.0,-0.1,0.02,-1.05,0.37,-21.04,8.41,-0.6,45.46,-45.01,0.0,0.0,0.0,0.0,0.0,0.0,0.0,0.0,0.0,0.0,0.0,0.0,0.0,0.0,0.0,0.0,0.0,0.0,0.0,0.0,0.0
,,124038.695737,1.9549195766448975,0.0,0.0,0.0,0.0,0.0,0.0,0.0,0.0,0.0,0.0,0.0,59750.0,-0.06,0.05,-1.04,0.49,-23.41,11.83,0.0,44.56,-44.86,59758.0,-0.05,0.04,-1.07,-8.96,-25.43,16.1,0.0,46.06,-43.81,0.0,0.0,0.0,0.0,0.0,0.0,0.0,0.0,0.0,0.0,0.0,0.0,0.0,0.0,0.0,0.0,0.0,0.0,0.0,0.0,0.0
,,124038.713172,1.9723527431488037,0.0,0.0,0.0,0.0,0.0,0.0,0.0,0.0,0.0,0.0,0.0,59767.0,-0.02,0.11,-1.07,-48.23,-2.99,5.0,-1.2,44.56,-44.41,59776.0,-0.06,0.05,-1.1,-63.54,-0.55,7.68,-1.2,44.56,-44.41,0.0,0.0,0.0,0.0,0.0,0.0,0.0,0.0,0.0,0.0,0.0,0.0,0.0,0.0,0.0,0.0,0.0,0.0,0.0,0.0,0.0
,,124038.730931,1.9901137351989746,0.0,0.0,0.0,0.0,0.0,0.0,0.0,0.0,0.0,0.0,0.0,59785.0,-0.05,0.05,-1.11,-68.54,-2.68,15.0,0.45,43.36,-44.56,59794.0,0.04,0.05,-1.0,-79.45,7.38,25.49,-1.8,43.21,-44.41,0.0,0.0,0.0,0.0,0.0,0.0,0.0,0.0,0.0,0.0,0.0,0.0,0.0,0.0,0.0,0.0,0.0,0.0,0.0,0.0,0.0
,,124038.750344,2.0095651149749756,0.0,0.0,0.0,0.0,0.0,0.0,0.0,0.0,0.0,0.0,0.0,59802.0,-0.02,0.01,-0.95,-77.5,13.72,24.82,-3.3,44.56,-44.86,59811.0,-0.04,-0.01,-0.96,-66.65,18.78,18.54,-1.8,43.51,-45.16,0.0,0.0,0.0,0.0,0.0,0.0,0.0,0.0,0.0,0.0,0.0,0.0,0.0,0.0,0.0,0.0,0.0,0.0,0.0,0.0,0.0
,,124038.796578,2.055773973464966,0.0,0.0,0.0,0.0,0.0,0.0,0.0,0.0,0.0,0.0,0.0,59820.0,-0.07,0.01,-1.01,-59.39,17.8,18.05,-2.85,44.26,-45.46,59859.0,-0.06,0.03,-1.01,-59.27,17.5,21.16,-2.55,43.51,-44.41,0.0,0.0,0.0,0.0,0.0,0.0,0.0,0.0,0.0,0.0,0.0,0.0,0.0,0.0,0.0,0.0,0.0,0.0,0.0,0.0,0.0
,,124038.814163,2.0733442306518555,0.0,0.0,0.0,0.0,0.0,0.0,0.0,0.0,0.0,0.0,0.0,59868.0,-0.06,0.08,-1.06,-59.88,13.72,21.04,-3.3,43.51,-43.81,59877.0,-0.09,0.15,-1.09,-69.82,12.74,22.56,-3.3,43.51,-43.81,0.0,0.0,0.0,0.0,0.0,0.0,0.0,0.0,0.0,0.0,0.0,0.0,0.0,0.0,0.0,0.0,0.0,0.0,0.0,0.0,0.0
,,124038.831891,2.091071605682373,0.0,0.0,0.0,0.0,0.0,0.0,0.0,0.0,0.0,0.0,0.0,59886.0,-0.08,0.19,-1.06,-87.01,9.7,31.77,-3.9,44.26,-44.86,59895.0,-0.06,0.16,-1.04,-98.54,1.34,47.38,-3.3,43.81,-45.46,0.0,0.0,0.0,0.0,0.0,0.0,0.0,0.0,0.0,0.0,0.0,0.0,0.0,0.0,0.0,0.0,0.0,0.0,0.0,0.0,0.0
,,124038.849929,2.1091127395629883,0.0,0.0,0.0,0.0,0.0,0.0,0.0,0.0,0.0,0.0,0.0,59903.0,-0.06,0.16,-1.06,-90.73,-5.79,55.67,-3.9,43.51,-45.46,59912.0,0.03,0.28,-0.96,-72.5,-4.02,49.27,-2.55,43.81,-46.51,0.0,0.0,0.0,0.0,0.0,0.0,0.0,0.0,0.0,0.0,0.0,0.0,0.0,0.0,0.0,0.0,0.0,0.0,0.0,0.0,0.0
,,124038.867814,2.1270108222961426,0.0,0.0,0.0,0.0,0.0,0.0,0.0,0.0,0.0,0.0,0.0,59921.0,0.01,0.29,-0.92,-63.23,-6.83,37.68,-3.0,45.16,-45.61,59930.0,-0.06,0.24,-0.97,-59.63,-4.09,31.1,-3.45,44.71,-45.61,0.0,0.0,0.0,0.0,0.0,0.0,0.0,0.0,0.0,0.0,0.0,0.0,0.0,0.0,0.0,0.0,0.0,0.0,0.0,0.0,0.0
,,124038.885245,2.144434928894043,0.0,0.0,0.0,0.0,0.0,0.0,0.0,0.0,0.0,0.0,0.0,59939.0,0.0,0.19,-1.0,-57.99,-3.48,32.5,-3.75,43.66,-45.91,59948.0,0.0,0.21,-0.98,-39.76,-2.93,23.23,-2.4,43.66,-47.71,0.0,0.0,0.0,0.0,0.0,0.0,0.0,0.0,0.0,0.0,0.0,0.0,0.0,0.0,0.0,0.0,0.0,0.0,0.0,0.0,0.0
,,124038.903114,2.162295341491699,0.0,0.0,0.0,0.0,0.0,0.0,0.0,0.0,0.0,0.0,0.0,59957.0,-0.04,0.23,-1.02,-25.0,-7.32,13.29,-2.4,43.66,-47.71,59965.0,0.01,0.21,-0.94,-21.89,-1.77,13.54,-4.05,44.41,-48.01,0.0,0.0,0.0,0.0,0.0,0.0,0.0,0.0,0.0,0.0,0.0,0.0,0.0,0.0,0.0,0.0,0.0,0.0,0.0,0.0,0.0
,,124038.95164,2.2108330726623535,0.0,0.0,0.0,0.0,0.0,0.0,0.0,0.0,0.0,0.0,0.0,59974.0,-0.02,0.22,-1.01,-28.78,-3.54,20.91,-2.4,44.41,-49.06,60014.0,-0.01,0.25,-1.02,-22.38,-2.26,22.62,0.6,45.01,-47.86,0.0,0.0,0.0,0.0,0.0,0.0,0.0,0.0,0.0,0.0,0.0,0.0,0.0,0.0,0.0,0.0,0.0,0.0,0.0,0.0,0.0
,,124038.969397,2.228590726852417,0.0,0.0,0.0,0.0,0.0,0.0,0.0,0.0,0.0,0.0,0.0,60023.0,-0.02,0.26,-1.03,-10.3,-5.0,20.55,-1.8,45.61,-49.51,60032.0,0.05,0.24,-1.01,6.22,-3.96,12.8,-2.55,43.81,-48.91,0.0,0.0,0.0,0.0,0.0,0.0,0.0,0.0,0.0,0.0,0.0,0.0,0.0,0.0,0.0,0.0,0.0,0.0,0.0,0.0,0.0
,,124038.987436,2.246642827987671,0.0,0.0,0.0,0.0,0.0,0.0,0.0,0.0,0.0,0.0,0.0,60041.0,0.06,0.25,-0.93,18.6,-11.89,0.12,-3.0,44.71,-48.61,60049.0,0.01,0.27,-0.99,26.46,-26.04,-6.52,-2.4,43.36,-49.66,0.0,0.0,0.0,0.0,0.0,0.0,0.0,0.0,0.0,0.0,0.0,0.0,0.0,0.0,0.0,0.0,0.0,0.0,0.0,0.0,0.0
,,124039.004787,2.2639713287353516,0.0,0.0,0.0,0.0,0.0,0.0,0.0,0.0,0.0,0.0,0.0,60058.0,-0.02,0.27,-1.04,22.74,-29.94,-3.41,-2.4,45.46,-50.11,60067.0,-0.04,0.26,-1.06,24.57,-25.0,-3.11,-3.45,44.41,-50.71,0.0,0.0,0.0,0.0,0.0,0.0,0.0,0.0,0.0,0.0,0.0,0.0,0.0,0.0,0.0,0.0,0.0,0.0,0.0,0.0,0.0
,,124039.022671,2.281853675842285,0.0,0.0,0.0,0.0,0.0,0.0,0.0,0.0,0.0,0.0,0.0,60076.0,-0.03,0.21,-1.06,32.32,-9.63,-5.37,-3.45,44.41,-50.71,60085.0,-0.06,0.18,-1.06,42.93,-0.55,-10.85,-4.35,44.56,-50.56,0.0,0.0,0.0,0.0,0.0,0.0,0.0,0.0,0.0,0.0,0.0,0.0,0.0,0.0,0.0,0.0,0.0,0.0,0.0,0.0,0.0
,,124039.040168,2.2993528842926025,0.0,0.0,0.0,0.0,0.0,0.0,0.0,0.0,0.0,0.0,0.0,60094.0,-0.04,0.19,-0.99,45.24,2.68,-10.91,-4.8,44.41,-49.66,60103.0,-0.04,0.2,-0.97,46.59,-7.38,-10.85,-4.35,42.46,-49.51,0.0,0.0,0.0,0.0,0.0,0.0,0.0,0.0,0.0,0.0,0.0,0.0,0.0,0.0,0.0,0.0,0.0,0.0,0.0,0.0,0.0
,,124039.058332,2.3175525665283203,0.0,0.0,0.0,0.0,0.0,0.0,0.0,0.0,0.0,0.0,0.0,60112.0,-0.02,0.16,-0.95,48.41,-16.28,-8.96,-4.65,45.01,-48.91,60120.0,-0.08,0.21,-0.97,51.16,-26.95,-10.18,-4.8,44.11,-49.66,0.0,0.0,0.0,0.0,0.0,0.0,0.0,0.0,0.0,0.0,0.0,0.0,0.0,0.0,0.0,0.0,0.0,0.0,0.0,0.0,0.0
,,124039.106349,2.365574598312378,0.0,0.0,0.0,0.0,0.0,0.0,0.0,0.0,0.0,0.0,0.0,60129.0,-0.07,0.19,-1.02,45.55,-19.82,-6.71,-4.65,44.56,-50.56,60169.0,-0.11,0.19,-1.01,34.02,-14.88,-6.83,-5.85,42.01,-45.61,0.0,0.0,0.0,0.0,0.0,0.0,0.0,0.0,0.0,0.0,0.0,0.0,0.0,0.0,0.0,0.0,0.0,0.0,0.0,0.0,0.0
,,124039.124771,2.383976459503174,0.0,0.0,0.0,0.0,0.0,0.0,0.0,0.0,0.0,0.0,0.0,60178.0,-0.03,0.17,-1.01,20.85,6.1,-4.7,-6.15,43.66,-47.26,60187.0,-0.06,0.2,-1.04,13.05,13.78,-5.06,-9.3,42.01,-48.01,0.0,0.0,0.0,0.0,0.0,0.0,0.0,0.0,0.0,0.0,0.0,0.0,0.0,0.0,0.0,0.0,0.0,0.0,0.0,0.0,0.0
,,124039.14376,2.4029605388641357,0.0,0.0,0.0,0.0,0.0,0.0,0.0,0.0,0.0,0.0,0.0,60196.0,-0.06,0.21,-1.02,-7.07,26.04,-0.18,-9.3,42.01,-48.01,60206.0,-0.03,0.22,-1.0,-31.71,25.61,5.91,-8.25,42.61,-46.66,0.0,0.0,0.0,0.0,0.0,0.0,0.0,0.0,0.0,0.0,0.0,0.0,0.0,0.0,0.0,0.0,0.0,0.0,0.0,0.0,0.0
,,124039.162192,2.4214119911193848,0.0,0.0,0.0,0.0,0.0,0.0,0.0,0.0,0.0,0.0,0.0,60215.0,-0.03,0.19,-1.01,-43.84,19.94,7.56,-9.15,41.71,-46.21,60224.0,-0.02,0.18,-1.02,-49.09,19.94,5.24,-9.9,42.16,-46.81,0.0,0.0,0.0,0.0,0.0,0.0,0.0,0.0,0.0,0.0,0.0,0.0,0.0,0.0,0.0,0.0,0.0,0.0,0.0,0.0,0.0
,,124039.181229,2.440436363220215,0.0,0.0,0.0,0.0,0.0,0.0,0.0,0.0,0.0,0.0,0.0,60233.0,-0.06,0.12,-0.98,-40.85,12.38,1.4,-10.2,42.76,-46.21,60243.0,-0.04,0.16,-0.94,-55.73,11.59,2.93,-9.9,39.61,-46.51,0.0,0.0,0.0,0.0,0.0,0.0,0.0,0.0,0.0,0.0,0.0,0.0,0.0,0.0,0.0,0.0,0.0,0.0,0.0,0.0,0.0
,,124039.198571,2.4577653408050537,0.0,0.0,0.0,0.0,0.0,0.0,0.0,0.0,0.0,0.0,0.0,60252.0,-0.03,0.19,-0.88,-63.35,-2.07,7.68,-9.6,41.11,-46.81,60261.0,-0.05,0.21,-0.95,-59.09,-9.82,7.26,-10.8,41.56,-45.91,0.0,0.0,0.0,0.0,0.0,0.0,0.0,0.0,0.0,0.0,0.0,0.0,0.0,0.0,0.0,0.0,0.0,0.0,0.0,0.0,0.0
,,124039.216217,2.4753987789154053,0.0,0.0,0.0,0.0,0.0,0.0,0.0,0.0,0.0,0.0,0.0,60270.0,-0.06,0.26,-1.04,-52.5,-3.41,3.29,-11.7,40.66,-47.11,60279.0,-0.07,0.25,-1.0,-49.7,11.4,2.38,-12.0,41.71,-45.46,0.0,0.0,0.0,0.0,0.0,0.0,0.0,0.0,0.0,0.0,0.0,0.0,0.0,0.0,0.0,0.0,0.0,0.0,0.0,0.0,0.0
,,124039.266009,2.525200128555298,0.0,0.0,0.0,0.0,0.0,0.0,0.0,0.0,0.0,0.0,0.0,60288.0,-0.04,0.26,-0.99,-55.43,26.71,9.15,-9.75,41.56,-45.91,60328.0,-0.02,0.28,-0.98,-67.93,30.12,17.99,-11.85,39.46,-41.56,0.0,0.0,0.0,0.0,0.0,0.0,0.0,0.0,0.0,0.0,0.0,0.0,0.0,0.0,0.0,0.0,0.0,0.0,0.0,0.0,0.0
,,124039.284806,2.5439937114715576,0.0,0.0,0.0,0.0,0.0,0.0,0.0,0.0,0.0,0.0,0.0,60337.0,-0.03,0.27,-1.03,-80.3,34.7,22.93,-14.1,40.66,-43.81,60347.0,-0.01,0.28,-0.99,-95.61,42.01,21.65,-13.95,40.51,-42.31,0.0,0.0,0.0,0.0,0.0,0.0,0.0,0.0,0.0,0.0,0.0,0.0,0.0,0.0,0.0,0.0,0.0,0.0,0.0,0.0,0.0
,,124039.303613,2.562788248062134,0.0,0.0,0.0,0.0,0.0,0.0,0.0,0.0,0.0,0.0,0.0,60356.0,0.02,0.33,-0.98,-105.67,48.72,20.73,-13.95,40.51,-42.31,60366.0,0.02,0.37,-0.92,-100.0,46.16,17.07,-15.15,39.61,-42.01,0.0,0.0,0.0,0.0,0.0,0.0,0.0,0.0,0.0,0.0,0.0,0.0,0.0,0.0,0.0,0.0,0.0,0.0,0.0,0.0,0.0
,,124039.322212,2.5813944339752197,0.0,0.0,0.0,0.0,0.0,0.0,0.0,0.0,0.0,0.0,0.0,60375.0,0.04,0.38,-0.9,-92.01,41.04,13.05,-13.95,38.71,-42.31,60385.0,0.02,0.37,-0.9,-88.17,29.21,9.88,-14.25,39.46,-42.31,0.0,0.0,0.0,0.0,0.0,0.0,0.0,0.0,0.0,0.0,0.0,0.0,0.0,0.0,0.0,0.0,0.0,0.0,0.0,0.0,0.0
,,124039.34094,2.6001195907592773,0.0,0.0,0.0,0.0,0.0,0.0,0.0,0.0,0.0,0.0,0.0,60394.0,0.03,0.35,-0.88,-87.56,19.15,10.79,-14.55,39.91,-42.31,60403.0,0.0,0.37,-0.98,-78.17,13.11,7.56,-15.45,39.61,-40.06,0.0,0.0,0.0,0.0,0.0,0.0,0.0,0.0,0.0,0.0,0.0,0.0,0.0,0.0,0.0,0.0,0.0,0.0,0.0,0.0,0.0
,,124039.359645,2.6188406944274902,0.0,0.0,0.0,0.0,0.0,0.0,0.0,0.0,0.0,0.0,0.0,60413.0,-0.01,0.32,-0.93,-63.6,15.73,8.05,-14.4,38.56,-40.06,60422.0,0.05,0.34,-0.85,-57.38,22.99,6.89,-14.4,39.01,-40.06,0.0,0.0,0.0,0.0,0.0,0.0,0.0,0.0,0.0,0.0,0.0,0.0,0.0,0.0,0.0,0.0,0.0,0.0,0.0,0.0,0.0
,,124039.378441,2.6376304626464844,0.0,0.0,0.0,0.0,0.0,0.0,0.0,0.0,0.0,0.0,0.0,60431.0,0.01,0.34,-0.86,-62.01,19.45,9.82,-15.3,40.21,-39.91,60441.0,-0.02,0.34,-0.85,-58.23,23.96,12.93,-16.95,38.26,-38.41,0.0,0.0,0.0,0.0,0.0,0.0,0.0,0.0,0.0,0.0,0.0,0.0,0.0,0.0,0.0,0.0,0.0,0.0,0.0,0.0,0.0
,,124039.427697,2.6868832111358643,0.0,0.0,0.0,0.0,0.0,0.0,0.0,0.0,0.0,0.0,0.0,60450.0,0.04,0.37,-0.87,-60.67,17.56,15.55,-15.45,39.31,-37.66,60490.0,0.03,0.44,-0.86,-59.09,22.13,11.22,-18.15,37.06,-34.81,0.0,0.0,0.0,0.0,0.0,0.0,0.0,0.0,0.0,0.0,0.0,0.0,0.0,0.0,0.0,0.0,0.0,0.0,0.0,0.0,0.0
,,124039.446823,2.706021308898926,0.0,0.0,0.0,0.0,0.0,0.0,0.0,0.0,0.0,0.0,0.0,60499.0,0.07,0.43,-0.88,-69.39,22.8,9.02,-18.45,39.16,-33.76,60508.0,0.07,0.4,-0.85,-85.43,20.73,11.22,-18.15,39.16,-35.41,0.0,0.0,0.0,0.0,0.0,0.0,0.0,0.0,0.0,0.0,0.0,0.0,0.0,0.0,0.0,0.0,0.0,0.0,0.0,0.0,0.0
,,124039.464911,2.7240920066833496,0.0,0.0,0.0,0.0,0.0,0.0,0.0,0.0,0.0,0.0,0.0,60518.0,0.09,0.39,-0.88,-96.95,17.87,11.65,-20.41,39.01,-34.36,60527.0,0.08,0.46,-0.86,-96.83,15.91,9.7,-20.26,37.66,-32.11,0.0,0.0,0.0,0.0,0.0,0.0,0.0,0.0,0.0,0.0,0.0,0.0,0.0,0.0,0.0,0.0,0.0,0.0,0.0,0.0,0.0
,,124039.483732,2.7429163455963135,0.0,0.0,0.0,0.0,0.0,0.0,0.0,0.0,0.0,0.0,0.0,60537.0,0.08,0.49,-0.84,-91.77,16.4,8.78,-19.2,38.11,-32.41,60546.0,0.08,0.5,-0.83,-92.87,17.13,11.46,-19.2,38.11,-32.41,0.0,0.0,0.0,0.0,0.0,0.0,0.0,0.0,0.0,0.0,0.0,0.0,0.0,0.0,0.0,0.0,0.0,0.0,0.0,0.0,0.0
,,124039.502726,2.7619173526763916,0.0,0.0,0.0,0.0,0.0,0.0,0.0,0.0,0.0,0.0,0.0,60555.0,0.09,0.52,-0.9,-92.32,18.72,12.26,-19.8,39.16,-31.06,60565.0,0.08,0.49,-0.81,-85.79,23.29,13.72,-20.86,38.71,-30.01,0.0,0.0,0.0,0.0,0.0,0.0,0.0,0.0,0.0,0.0,0.0,0.0,0.0,0.0,0.0,0.0,0.0,0.0,0.0,0.0,0.0
,,124039.521223,2.7804131507873535,0.0,0.0,0.0,0.0,0.0,0.0,0.0,0.0,0.0,0.0,0.0,60574.0,0.13,0.53,-0.75,-79.21,21.16,12.68,-20.56,37.36,-30.46,60584.0,0.05,0.54,-0.85,-63.78,7.07,9.02,-21.16,37.51,-28.81,0.0,0.0,0.0,0.0,0.0,0.0,0.0,0.0,0.0,0.0,0.0,0.0,0.0,0.0,0.0,0.0,0.0,0.0,0.0,0.0,0.0
,,124039.540048,2.79923415184021,0.0,0.0,0.0,0.0,0.0,0.0,0.0,0.0,0.0,0.0,0.0,60593.0,0.14,0.52,-0.8,-54.88,15.06,10.12,-19.8,37.36,-28.66,60602.0,0.09,0.52,-0.84,-52.87,14.57,6.16,-21.31,38.11,-28.06,0.0,0.0,0.0,0.0,0.0,0.0,0.0,0.0,0.0,0.0,0.0,0.0,0.0,0.0,0.0,0.0,0.0,0.0,0.0,0.0,0.0
,,124039.590559,2.849761724472046,0.0,0.0,0.0,0.0,0.0,0.0,0.0,0.0,0.0,0.0,0.0,60612.0,0.09,0.53,-0.83,-62.93,20.73,4.7,-21.76,37.51,-27.91,60653.0,0.15,0.53,-0.83,-82.01,13.11,7.38,-20.41,37.96,-23.86,0.0,0.0,0.0,0.0,0.0,0.0,0.0,0.0,0.0,0.0,0.0,0.0,0.0,0.0,0.0,0.0,0.0,0.0,0.0,0.0,0.0
,,124039.608984,2.868177890777588,0.0,0.0,0.0,0.0,0.0,0.0,0.0,0.0,0.0,0.0,0.0,60662.0,0.1,0.58,-0.85,-89.51,9.82,4.57,-22.66,36.61,-22.96,60671.0,0.07,0.56,-0.83,-88.9,10.85,6.28,-23.11,37.06,-24.01,0.0,0.0,0.0,0.0,0.0,0.0,0.0,0.0,0.0,0.0,0.0,0.0,0.0,0.0,0.0,0.0,0.0,0.0,0.0,0.0,0.0
,,124039.627579,2.8867640495300293,0.0,0.0,0.0,0.0,0.0,0.0,0.0,0.0,0.0,0.0,0.0,60680.0,0.11,0.62,-0.76,-91.22,10.98,7.5,-22.51,36.91,-22.81,60690.0,0.14,0.6,-0.75,-91.22,13.23,6.34,-23.71,36.01,-21.91,0.0,0.0,0.0,0.0,0.0,0.0,0.0,0.0,0.0,0.0,0.0,0.0,0.0,0.0,0.0,0.0,0.0,0.0,0.0,0.0,0.0
,,124039.646606,2.9058074951171875,0.0,0.0,0.0,0.0,0.0,0.0,0.0,0.0,0.0,0.0,0.0,60699.0,0.11,0.56,-0.81,-95.06,18.29,6.1,-23.11,37.06,-21.31,60708.0,0.15,0.65,-0.78,-107.99,24.45,4.45,-24.46,38.41,-22.21,0.0,0.0,0.0,0.0,0.0,0.0,0.0,0.0,0.0,0.0,0.0,0.0,0.0,0.0,0.0,0.0,0.0,0.0,0.0,0.0,0.0
,,124039.664887,2.9240822792053223,0.0,0.0,0.0,0.0,0.0,0.0,0.0,0.0,0.0,0.0,0.0,60718.0,0.09,0.66,-0.74,-114.7,26.04,0.61,-22.51,36.91,-22.81,60727.0,0.12,0.69,-0.69,-120.43,21.95,-2.32,-21.61,37.36,-21.61,0.0,0.0,0.0,0.0,0.0,0.0,0.0,0.0,0.0,0.0,0.0,0.0,0.0,0.0,0.0,0.0,0.0,0.0,0.0,0.0,0.0
,,124039.683613,2.942807197570801,0.0,0.0,0.0,0.0,0.0,0.0,0.0,0.0,0.0,0.0,0.0,60736.0,0.14,0.68,-0.69,-123.17,14.94,-3.48,-21.61,38.41,-21.61,60746.0,0.04,0.68,-0.69,-116.28,7.93,-1.52,-21.61,38.41,-20.56,0.0,0.0,0.0,0.0,0.0,0.0,0.0,0.0,0.0,0.0,0.0,0.0,0.0,0.0,0.0,0.0,0.0,0.0,0.0,0.0,0.0
,,124039.702198,2.961378574371338,0.0,0.0,0.0,0.0,0.0,0.0,0.0,0.0,0.0,0.0,0.0,60755.0,0.09,0.65,-0.66,-108.48,8.84,2.5,-22.36,38.11,-21.31,60764.0,0.09,0.7,-0.63,-108.48,10.06,5.3,-22.36,39.16,-21.91,0.0,0.0,0.0,0.0,0.0,0.0,0.0,0.0,0.0,0.0,0.0,0.0,0.0,0.0,0.0,0.0,0.0,0.0,0.0,0.0,0.0
,,124039.748186,3.0073742866516113,0.0,0.0,0.0,0.0,0.0,0.0,0.0,0.0,0.0,0.0,0.0,60774.0,0.12,0.71,-0.61,-111.89,13.35,8.6,-22.81,37.96,-21.46,60810.0,0.16,0.73,-0.63,-108.11,13.96,8.05,-21.91,39.16,-18.6,0.0,0.0,0.0,0.0,0.0,0.0,0.0,0.0,0.0,0.0,0.0,0.0,0.0,0.0,0.0,0.0,0.0,0.0,0.0,0.0,0.0
,,124039.767146,3.0263426303863525,0.0,0.0,0.0,0.0,0.0,0.0,0.0,0.0,0.0,0.0,0.0,60819.0,0.14,0.75,-0.65,-100.98,12.38,6.65,-23.26,38.56,-21.01,60829.0,0.15,0.78,-0.58,-96.52,13.54,7.74,-22.66,39.16,-21.31,0.0,0.0,0.0,0.0,0.0,0.0,0.0,0.0,0.0,0.0,0.0,0.0,0.0,0.0,0.0,0.0,0.0,0.0,0.0,0.0,0.0
,,124039.785249,3.0444352626800537,0.0,0.0,0.0,0.0,0.0,0.0,0.0,0.0,0.0,0.0,0.0,60838.0,0.17,0.81,-0.51,-95.43,7.07,12.01,-21.61,39.91,-22.21,60847.0,0.14,0.79,-0.5,-90.43,2.93,12.93,-20.86,38.41,-19.95,0.0,0.0,0.0,0.0,0.0,0.0,0.0,0.0,0.0,0.0,0.0,0.0,0.0,0.0,0.0,0.0,0.0,0.0,0.0,0.0,0.0
,,124039.803921,3.063106060028076,0.0,0.0,0.0,0.0,0.0,0.0,0.0,0.0,0.0,0.0,0.0,60857.0,0.14,0.81,-0.53,-91.65,2.13,11.28,-22.66,38.11,-20.56,60866.0,0.14,0.8,-0.54,-88.6,6.65,8.6,-22.66,38.11,-20.56,0.0,0.0,0.0,0.0,0.0,0.0,0.0,0.0,0.0,0.0,0.0,0.0,0.0,0.0,0.0,0.0,0.0,0.0,0.0,0.0,0.0
,,124039.822223,3.081404685974121,0.0,0.0,0.0,0.0,0.0,0.0,0.0,0.0,0.0,0.0,0.0,60875.0,0.13,0.82,-0.5,-83.72,10.0,3.84,-23.26,39.01,-21.76,60885.0,0.14,0.87,-0.43,-81.71,9.88,0.3,-21.91,39.46,-19.5,0.0,0.0,0.0,0.0,0.0,0.0,0.0,0.0,0.0,0.0,0.0,0.0,0.0,0.0,0.0,0.0,0.0,0.0,0.0,0.0,0.0
,,124039.840804,3.099982976913452,0.0,0.0,0.0,0.0,0.0,0.0,0.0,0.0,0.0,0.0,0.0,60894.0,0.13,0.94,-0.45,-85.55,7.68,0.12,-23.41,38.41,-20.26,60903.0,0.14,0.98,-0.5,-93.9,9.88,-0.73,-23.41,37.36,-19.2,0.0,0.0,0.0,0.0,0.0,0.0,0.0,0.0,0.0,0.0,0.0,0.0,0.0,0.0,0.0,0.0,0.0,0.0,0.0,0.0,0.0
,,124039.859474,3.118656635284424,0.0,0.0,0.0,0.0,0.0,0.0,0.0,0.0,0.0,0.0,0.0,60912.0,0.15,1.01,-0.53,-93.17,14.45,2.56,-21.91,38.41,-19.95,60922.0,0.16,0.98,-0.4,-93.84,17.74,8.96,-22.21,39.01,-19.65,0.0,0.0,0.0,0.0,0.0,0.0,0.0,0.0,0.0,0.0,0.0,0.0,0.0,0.0,0.0,0.0,0.0,0.0,0.0,0.0,0.0
,,124039.910696,3.1699016094207764,0.0,0.0,0.0,0.0,0.0,0.0,0.0,0.0,0.0,0.0,0.0,60931.0,0.14,0.78,-0.38,-82.13,17.2,-2.87,-23.26,37.51,-20.41,60973.0,0.07,0.74,-0.37,-46.52,2.5,-10.85,-20.26,40.51,-18.15,0.0,0.0,0.0,0.0,0.0,0.0,0.0,0.0,0.0,0.0,0.0,0.0,0.0,0.0,0.0,0.0,0.0,0.0,0.0,0.0,0.0
,,124039.929305,3.1884894371032715,0.0,0.0,0.0,0.0,0.0,0.0,0.0,0.0,0.0,0.0,0.0,60982.0,0.13,0.84,-0.35,-23.35,0.24,-11.4,-20.56,38.11,-17.85,60991.0,0.13,0.92,-0.43,-19.09,-2.62,-11.04,-23.26,37.96,-18.75,0.0,0.0,0.0,0.0,0.0,0.0,0.0,0.0,0.0,0.0,0.0,0.0,0.0,0.0,0.0,0.0,0.0,0.0,0.0,0.0,0.0
,,124039.948127,3.207314968109131,0.0,0.0,0.0,0.0,0.0,0.0,0.0,0.0,0.0,0.0,0.0,61001.0,0.14,0.94,-0.48,-18.54,-4.21,-10.85,-23.26,37.51,-17.4,61010.0,0.14,0.94,-0.46,-10.91,-2.26,-12.2,-23.41,39.16,-17.25,0.0,0.0,0.0,0.0,0.0,0.0,0.0,0.0,0.0,0.0,0.0,0.0,0.0,0.0,0.0,0.0,0.0,0.0,0.0,0.0,0.0
,,124039.966491,3.2256758213043213,0.0,0.0,0.0,0.0,0.0,0.0,0.0,0.0,0.0,0.0,0.0,61019.0,0.12,0.9,-0.42,-9.15,-1.83,-11.34,-22.21,37.96,-19.05,61029.0,0.12,0.9,-0.41,-2.99,-4.51,-11.77,-22.36,38.41,-19.5,0.0,0.0,0.0,0.0,0.0,0.0,0.0,0.0,0.0,0.0,0.0,0.0,0.0,0.0,0.0,0.0,0.0,0.0,0.0,0.0,0.0
,,124039.984917,3.244098424911499,0.0,0.0,0.0,0.0,0.0,0.0,0.0,0.0,0.0,0.0,0.0,61038.0,0.14,0.91,-0.35,2.8,-4.45,-11.04,-22.21,36.91,-18.3,61047.0,0.14,0.97,-0.39,-2.8,-5.98,-7.01,-21.91,38.11,-18.6,0.0,0.0,0.0,0.0,0.0,0.0,0.0,0.0,0.0,0.0,0.0,0.0,0.0,0.0,0.0,0.0,0.0,0.0,0.0,0.0,0.0
,,124040.003434,3.2626137733459473,0.0,0.0,0.0,0.0,0.0,0.0,0.0,0.0,0.0,0.0,0.0,61056.0,0.13,0.95,-0.44,-13.6,-3.35,-3.23,-21.76,39.01,-18.3,61066.0,0.11,0.94,-0.47,-4.57,2.99,-2.32,-21.76,39.01,-18.3,0.0,0.0,0.0,0.0,0.0,0.0,0.0,0.0,0.0,0.0,0.0,0.0,0.0,0.0,0.0,0.0,0.0,0.0,0.0,0.0,0.0
,,124040.021918,3.281101942062378,0.0,0.0,0.0,0.0,0.0,0.0,0.0,0.0,0.0,0.0,0.0,61075.0,0.15,0.9,-0.43,1.83,8.78,-0.73,-22.66,39.16,-18.6,61084.0,0.16,0.91,-0.41,3.9,9.88,-2.87,-22.81,38.26,-17.7,0.0,0.0,0.0,0.0,0.0,0.0,0.0,0.0,0.0,0.0,0.0,0.0,0.0,0.0,0.0,0.0,0.0,0.0,0.0,0.0,0.0
,,124040.071519,3.3307154178619385,0.0,0.0,0.0,0.0,0.0,0.0,0.0,0.0,0.0,0.0,0.0,61093.0,0.14,0.9,-0.42,2.2,4.51,-4.51,-21.61,37.36,-18.15,61134.0,0.14,0.97,-0.43,2.44,0.91,-5.98,-20.11,36.91,-15.6,0.0,0.0,0.0,0.0,0.0,0.0,0.0,0.0,0.0,0.0,0.0,0.0,0.0,0.0,0.0,0.0,0.0,0.0,0.0,0.0,0.0
,,124040.090163,3.349372148513794,0.0,0.0,0.0,0.0,0.0,0.0,0.0,0.0,0.0,0.0,0.0,61143.0,0.15,1.0,-0.43,-6.22,2.8,-7.74,-20.41,37.96,-15.6,61152.0,0.14,0.94,-0.44,-17.26,7.87,-2.93,-21.16,37.96,-15.6,0.0,0.0,0.0,0.0,0.0,0.0,0.0,0.0,0.0,0.0,0.0,0.0,0.0,0.0,0.0,0.0,0.0,0.0,0.0,0.0,0.0
,,124040.108388,3.3675787448883057,0.0,0.0,0.0,0.0,0.0,0.0,0.0,0.0,0.0,0.0,0.0,61161.0,0.14,0.87,-0.39,-19.27,8.54,-4.82,-23.26,37.21,-16.05,61171.0,0.11,0.91,-0.41,-8.35,8.41,-7.07,-21.16,37.51,-16.05,0.0,0.0,0.0,0.0,0.0,0.0,0.0,0.0,0.0,0.0,0.0,0.0,0.0,0.0,0.0,0.0,0.0,0.0,0.0,0.0,0.0
,,124040.126884,3.386077642440796,0.0,0.0,0.0,0.0,0.0,0.0,0.0,0.0,0.0,0.0,0.0,61180.0,0.17,1.07,-0.31,-7.13,5.61,-2.07,-21.16,37.96,-16.05,61189.0,0.14,0.92,-0.4,-20.3,2.07,1.22,-21.16,36.16,-16.95,0.0,0.0,0.0,0.0,0.0,0.0,0.0,0.0,0.0,0.0,0.0,0.0,0.0,0.0,0.0,0.0,0.0,0.0,0.0,0.0,0.0
,,124040.145353,3.404536724090576,0.0,0.0,0.0,0.0,0.0,0.0,0.0,0.0,0.0,0.0,0.0,61198.0,0.1,0.91,-0.41,-22.44,1.22,3.05,-20.71,36.91,-15.6,61208.0,0.15,0.96,-0.38,-23.29,2.2,9.51,-20.56,37.66,-16.2,0.0,0.0,0.0,0.0,0.0,0.0,0.0,0.0,0.0,0.0,0.0,0.0,0.0,0.0,0.0,0.0,0.0,0.0,0.0,0.0,0.0
,,124040.16393,3.423112630844116,0.0,0.0,0.0,0.0,0.0,0.0,0.0,0.0,0.0,0.0,0.0,61217.0,0.15,0.89,-0.36,-23.48,4.82,10.12,-21.91,36.01,-17.55,61226.0,0.13,0.89,-0.38,-18.05,6.28,5.98,-21.91,36.01,-17.55,0.0,0.0,0.0,0.0,0.0,0.0,0.0,0.0,0.0,0.0,0.0,0.0,0.0,0.0,0.0,0.0,0.0,0.0,0.0,0.0,0.0
,,124040.182538,3.4417173862457275,0.0,0.0,0.0,0.0,0.0,0.0,0.0,0.0,0.0,0.0,0.0,61235.0,0.15,0.92,-0.36,-13.96,7.62,3.66,-21.16,36.46,-16.35,61245.0,0.15,0.95,-0.36,-15.24,1.65,1.77,-20.86,36.61,-15.75,0.0,0.0,0.0,0.0,0.0,0.0,0.0,0.0,0.0,0.0,0.0,0.0,0.0,0.0,0.0,0.0,0.0,0.0,0.0,0.0,0.0
,,124040.233911,3.4930996894836426,0.0,0.0,0.0,0.0,0.0,0.0,0.0,0.0,0.0,0.0,0.0,61254.0,0.15,0.92,-0.38,-16.4,-2.56,1.16,-21.91,35.56,-18.9,61296.0,0.12,0.89,-0.34,-15.18,-3.54,2.38,-17.7,34.96,-16.8,0.0,0.0,0.0,0.0,0.0,0.0,0.0,0.0,0.0,0.0,0.0,0.0,0.0,0.0,0.0,0.0,0.0,0.0,0.0,0.0,0.0
,,124040.252558,3.5117461681365967,0.0,0.0,0.0,0.0,0.0,0.0,0.0,0.0,0.0,0.0,0.0,61305.0,0.09,0.92,-0.3,-16.28,-6.95,0.43,-19.2,33.91,-18.6,61314.0,0.15,0.92,-0.33,-19.57,-10.61,1.16,-20.26,33.91,-18.6,0.0,0.0,0.0,0.0,0.0,0.0,0.0,0.0,0.0,0.0,0.0,0.0,0.0,0.0,0.0,0.0,0.0,0.0,0.0,0.0,0.0
,,124040.271097,3.5302748680114746,0.0,0.0,0.0,0.0,0.0,0.0,0.0,0.0,0.0,0.0,0.0,61324.0,0.14,0.96,-0.36,-28.17,-16.46,2.87,-19.05,33.31,-20.71,61333.0,0.12,0.93,-0.37,-26.95,-16.95,4.88,-20.11,34.06,-22.51,0.0,0.0,0.0,0.0,0.0,0.0,0.0,0.0,0.0,0.0,0.0,0.0,0.0,0.0,0.0,0.0,0.0,0.0,0.0,0.0,0.0
,,124040.290048,3.5492312908172607,0.0,0.0,0.0,0.0,0.0,0.0,0.0,0.0,0.0,0.0,0.0,61342.0,0.13,0.9,-0.33,-21.59,-11.59,10.43,-20.41,34.06,-21.01,61352.0,0.17,0.89,-0.32,-20.3,-14.33,9.76,-19.2,33.91,-22.66,0.0,0.0,0.0,0.0,0.0,0.0,0.0,0.0,0.0,0.0,0.0,0.0,0.0,0.0,0.0,0.0,0.0,0.0,0.0,0.0,0.0
,,124040.308604,3.5677990913391113,0.0,0.0,0.0,0.0,0.0,0.0,0.0,0.0,0.0,0.0,0.0,61361.0,0.16,0.9,-0.4,-18.78,-18.84,2.87,-18.3,33.76,-24.46,61371.0,0.18,0.97,-0.36,-21.77,-18.84,2.38,-18.15,33.91,-24.61,0.0,0.0,0.0,0.0,0.0,0.0,0.0,0.0,0.0,0.0,0.0,0.0,0.0,0.0,0.0,0.0,0.0,0.0,0.0,0.0,0.0
,,124040.327415,3.5865960121154785,0.0,0.0,0.0,0.0,0.0,0.0,0.0,0.0,0.0,0.0,0.0,61380.0,0.18,0.92,-0.37,-26.83,-22.32,6.83,-19.5,33.46,-24.91,61389.0,0.15,0.93,-0.36,-32.38,-23.9,7.38,-17.4,33.46,-27.31,0.0,0.0,0.0,0.0,0.0,0.0,0.0,0.0,0.0,0.0,0.0,0.0,0.0,0.0,0.0,0.0,0.0,0.0,0.0,0.0,0.0
,,124040.346329,3.605522871017456,0.0,0.0,0.0,0.0,0.0,0.0,0.0,0.0,0.0,0.0,0.0,61399.0,0.15,0.93,-0.35,-30.18,-18.96,9.76,-18.15,34.21,-28.36,61408.0,0.13,0.94,-0.3,-31.52,-19.09,11.22,-17.1,33.91,-29.71,0.0,0.0,0.0,0.0,0.0,0.0,0.0,0.0,0.0,0.0,0.0,0.0,0.0,0.0,0.0,0.0,0.0,0.0,0.0,0.0,0.0
,,124040.396403,3.6555898189544678,0.0,0.0,0.0,0.0,0.0,0.0,0.0,0.0,0.0,0.0,0.0,61417.0,0.16,0.92,-0.29,-39.82,-20.85,14.63,-16.2,34.81,-32.56,61458.0,0.12,0.94,-0.24,-31.22,-401.77,-1392.38,-15.9,33.01,-30.91,0.0,0.0,0.0,0.0,0.0,0.0,0.0,0.0,0.0,0.0,0.0,0.0,0.0,0.0,0.0,0.0,0.0,0.0,0.0,0.0,0.0
,,124040.480104,3.7393124103546143,0.0,0.0,0.0,0.0,0.0,0.0,0.0,0.0,0.0,0.0,0.0,61532.0,0.13,0.76,-0.69,-0.37,21.77,-51.65,-16.2,36.46,-32.26,61542.0,0.11,0.69,-0.69,27.74,9.51,-50.98,-18.75,37.36,-32.41,0.0,0.0,0.0,0.0,0.0,0.0,0.0,0.0,0.0,0.0,0.0,0.0,0.0,0.0,0.0,0.0,0.0,0.0,0.0,0.0,0.0
,,124040.500421,3.759632110595703,0.0,0.0,0.0,0.0,0.0,0.0,0.0,0.0,0.0,0.0,0.0,61552.0,0.11,0.68,-0.71,47.07,2.13,-49.02,-17.4,38.71,-33.76,61562.0,0.13,0.69,-0.73,45.73,-1.65,-43.23,-18.75,39.16,-32.71,0.0,0.0,0.0,0.0,0.0,0.0,0.0,0.0,0.0,0.0,0.0,0.0,0.0,0.0,0.0,0.0,0.0,0.0,0.0,0.0,0.0
,,124040.519831,3.7790353298187256,0.0,0.0,0.0,0.0,0.0,0.0,0.0,0.0,0.0,0.0,0.0,61572.0,0.07,0.69,-0.75,29.21,-6.65,-36.34,-17.4,38.41,-33.46,61582.0,0.07,0.67,-0.79,-7.56,-3.96,-30.67,-17.55,40.06,-33.91,0.0,0.0,0.0,0.0,0.0,0.0,0.0,0.0,0.0,0.0,0.0,0.0,0.0,0.0,0.0,0.0,0.0,0.0,0.0,0.0,0.0
,,124040.540264,3.799450635910034,0.0,0.0,0.0,0.0,0.0,0.0,0.0,0.0,0.0,0.0,0.0,61592.0,0.07,0.71,-0.83,-54.7,-2.87,-29.02,-18.45,38.41,-34.51,61602.0,0.1,0.74,-0.75,-84.57,-2.87,-28.48,-18.15,39.16,-32.71,0.0,0.0,0.0,0.0,0.0,0.0,0.0,0.0,0.0,0.0,0.0,0.0,0.0,0.0,0.0,0.0,0.0,0.0,0.0,0.0,0.0
,,124040.559936,3.8191256523132324,0.0,0.0,0.0,0.0,0.0,0.0,0.0,0.0,0.0,0.0,0.0,61612.0,0.09,0.73,-0.67,-93.84,-6.34,-26.59,-17.7,39.16,-31.81,61622.0,0.03,0.75,-0.63,-101.59,-14.63,-27.32,-18.6,39.61,-33.01,0.0,0.0,0.0,0.0,0.0,0.0,0.0,0.0,0.0,0.0,0.0,0.0,0.0,0.0,0.0,0.0,0.0,0.0,0.0,0.0,0.0
,,124040.580183,3.8393747806549072,0.0,0.0,0.0,0.0,0.0,0.0,0.0,0.0,0.0,0.0,0.0,61632.0,0.06,0.75,-0.57,-109.02,-15.06,-29.57,-18.75,37.66,-30.76,61642.0,0.03,0.72,-0.61,-119.7,-20.73,-28.35,-19.2,40.21,-31.36,0.0,0.0,0.0,0.0,0.0,0.0,0.0,0.0,0.0,0.0,0.0,0.0,0.0,0.0,0.0,0.0,0.0,0.0,0.0,0.0,0.0
,,124040.632053,3.891242504119873,0.0,0.0,0.0,0.0,0.0,0.0,0.0,0.0,0.0,0.0,0.0,61652.0,0.03,0.71,-0.64,-137.13,-11.77,-28.41,-19.5,39.16,-30.01,61694.0,0.04,0.79,-0.58,-153.11,2.87,-30.55,-19.65,39.61,-25.51,0.0,0.0,0.0,0.0,0.0,0.0,0.0,0.0,0.0,0.0,0.0,0.0,0.0,0.0,0.0,0.0,0.0,0.0,0.0,0.0,0.0
,,124040.649824,3.9090209007263184,0.0,0.0,0.0,0.0,0.0,0.0,0.0,0.0,0.0,0.0,0.0,61703.0,0.1,0.84,-0.51,-155.55,8.05,-29.02,-19.65,41.71,-25.51,61712.0,0.15,0.95,-0.5,-141.52,5.0,-26.83,-22.21,39.01,-25.21,0.0,0.0,0.0,0.0,0.0,0.0,0.0,0.0,0.0,0.0,0.0,0.0,0.0,0.0,0.0,0.0,0.0,0.0,0.0,0.0,0.0
,,124040.66829,3.9274864196777344,0.0,0.0,0.0,0.0,0.0,0.0,0.0,0.0,0.0,0.0,0.0,61721.0,0.12,1.01,-0.47,-109.45,3.84,-24.94,-21.76,40.06,-25.21,61730.0,0.07,0.92,-0.46,-78.96,8.96,-22.13,-22.66,42.61,-24.61,0.0,0.0,0.0,0.0,0.0,0.0,0.0,0.0,0.0,0.0,0.0,0.0,0.0,0.0,0.0,0.0,0.0,0.0,0.0,0.0,0.0
,,124040.685713,3.944897174835205,0.0,0.0,0.0,0.0,0.0,0.0,0.0,0.0,0.0,0.0,0.0,61739.0,0.05,0.86,-0.47,-67.99,12.93,-22.99,-21.91,42.01,-22.96,61748.0,0.07,0.86,-0.44,-63.23,16.16,-26.95,-21.91,40.21,-25.36,0.0,0.0,0.0,0.0,0.0,0.0,0.0,0.0,0.0,0.0,0.0,0.0,0.0,0.0,0.0,0.0,0.0,0.0,0.0,0.0,0.0
,,124040.703625,3.962820291519165,0.0,0.0,0.0,0.0,0.0,0.0,0.0,0.0,0.0,0.0,0.0,61757.0,0.02,0.91,-0.46,-47.56,14.27,-27.99,-20.71,40.36,-23.86,61765.0,0.0,0.92,-0.51,-26.59,8.11,-23.84,-20.71,40.36,-23.86,0.0,0.0,0.0,0.0,0.0,0.0,0.0,0.0,0.0,0.0,0.0,0.0,0.0,0.0,0.0,0.0,0.0,0.0,0.0,0.0,0.0
,,124040.721312,3.9804913997650146,0.0,0.0,0.0,0.0,0.0,0.0,0.0,0.0,0.0,0.0,0.0,61774.0,-0.02,0.87,-0.58,-19.21,3.96,-19.45,-21.61,42.61,-24.01,61783.0,-0.01,0.87,-0.61,-23.41,2.8,-12.2,-22.36,42.31,-24.31,0.0,0.0,0.0,0.0,0.0,0.0,0.0,0.0,0.0,0.0,0.0,0.0,0.0,0.0,0.0,0.0,0.0,0.0,0.0,0.0,0.0
,,124040.739115,3.998293876647949,0.0,0.0,0.0,0.0,0.0,0.0,0.0,0.0,0.0,0.0,0.0,61792.0,0.01,0.89,-0.54,-33.41,8.6,-8.72,-22.21,41.41,-22.51,61801.0,0.06,0.91,-0.45,-54.39,6.4,-2.68,-21.91,41.56,-21.91,0.0,0.0,0.0,0.0,0.0,0.0,0.0,0.0,0.0,0.0,0.0,0.0,0.0,0.0,0.0,0.0,0.0,0.0,0.0,0.0,0.0
,,124040.795425,4.054620027542114,0.0,0.0,0.0,0.0,0.0,0.0,0.0,0.0,0.0,0.0,0.0,61810.0,0.09,0.94,-0.4,-55.37,3.6,-2.26,-21.16,42.46,-22.06,61857.0,0.07,0.92,-0.4,-50.06,4.51,-5.37,-19.35,42.16,-18.75,0.0,0.0,0.0,0.0,0.0,0.0,0.0,0.0,0.0,0.0,0.0,0.0,0.0,0.0,0.0,0.0,0.0,0.0,0.0,0.0,0.0
,,124040.813258,4.072443723678589,0.0,0.0,0.0,0.0,0.0,0.0,0.0,0.0,0.0,0.0,0.0,61866.0,0.1,0.96,-0.33,-44.27,7.13,-13.11,-22.21,41.71,-20.11,61875.0,0.08,0.92,-0.39,-21.65,2.26,-13.54,-22.21,41.71,-20.11,0.0,0.0,0.0,0.0,0.0,0.0,0.0,0.0,0.0,0.0,0.0,0.0,0.0,0.0,0.0,0.0,0.0,0.0,0.0,0.0,0.0
,,124040.831239,4.090445041656494,0.0,0.0,0.0,0.0,0.0,0.0,0.0,0.0,0.0,0.0,0.0,61884.0,0.05,0.86,-0.47,-18.17,-0.61,-14.82,-23.11,42.01,-18.9,61893.0,0.02,0.87,-0.5,-32.38,-0.91,-19.33,-22.21,41.41,-16.35,0.0,0.0,0.0,0.0,0.0,0.0,0.0,0.0,0.0,0.0,0.0,0.0,0.0,0.0,0.0,0.0,0.0,0.0,0.0,0.0,0.0
,,124040.849251,4.108437776565552,0.0,0.0,0.0,0.0,0.0,0.0,0.0,0.0,0.0,0.0,0.0,61902.0,-0.01,0.9,-0.49,-60.0,-4.88,-20.85,-22.51,42.46,-13.35,61911.0,-0.04,0.87,-0.49,-93.66,-10.43,-18.84,-21.46,42.16,-15.0,0.0,0.0,0.0,0.0,0.0,0.0,0.0,0.0,0.0,0.0,0.0,0.0,0.0,0.0,0.0,0.0,0.0,0.0,0.0,0.0,0.0
,,124040.86697,4.126145124435425,0.0,0.0,0.0,0.0,0.0,0.0,0.0,0.0,0.0,0.0,0.0,61920.0,-0.09,0.92,-0.49,-144.33,-7.56,-17.99,-23.11,42.01,-13.05,61929.0,-0.1,1.06,-0.45,-247.5,11.59,-5.0,-23.56,41.11,-10.95,0.0,0.0,0.0,0.0,0.0,0.0,0.0,0.0,0.0,0.0,0.0,0.0,0.0,0.0,0.0,0.0,0.0,0.0,0.0,0.0,0.0
,,124040.884869,4.14405083656311,0.0,0.0,0.0,0.0,0.0,0.0,0.0,0.0,0.0,0.0,0.0,61938.0,0.02,0.98,-0.27,-299.57,20.0,28.35,-22.51,41.71,-11.55,61947.0,-0.04,0.82,-0.05,-254.45,-3.48,65.67,-21.31,42.31,-11.1,0.0,0.0,0.0,0.0,0.0,0.0,0.0,0.0,0.0,0.0,0.0,0.0,0.0,0.0,0.0,0.0,0.0,0.0,0.0,0.0,0.0
,,124040.903006,4.162190914154053,0.0,0.0,0.0,0.0,0.0,0.0,0.0,0.0,0.0,0.0,0.0,61956.0,-0.06,0.77,-0.05,-172.01,-46.95,51.95,-21.31,42.31,-11.1,61965.0,-0.01,0.97,-0.23,-119.51,-38.48,7.74,-20.71,41.41,-9.6,0.0,0.0,0.0,0.0,0.0,0.0,0.0,0.0,0.0,0.0,0.0,0.0,0.0,0.0,0.0,0.0,0.0,0.0,0.0,0.0,0.0
,,124040.951426,4.210623741149902,0.0,0.0,0.0,0.0,0.0,0.0,0.0,0.0,0.0,0.0,0.0,61974.0,-0.0,1.08,-0.15,-89.51,-14.02,-15.06,-22.36,42.31,-10.8,62013.0,0.0,1.02,-0.1,-29.02,-5.85,-7.32,-19.35,42.16,-8.55,0.0,0.0,0.0,0.0,0.0,0.0,0.0,0.0,0.0,0.0,0.0,0.0,0.0,0.0,0.0,0.0,0.0,0.0,0.0,0.0,0.0
,,124040.968841,4.228020191192627,0.0,0.0,0.0,0.0,0.0,0.0,0.0,0.0,0.0,0.0,0.0,62022.0,0.04,0.98,-0.11,4.76,3.6,-2.13,-19.65,42.16,-9.15,62031.0,0.02,1.03,-0.13,6.77,7.87,-2.62,-22.51,42.16,-10.95,0.0,0.0,0.0,0.0,0.0,0.0,0.0,0.0,0.0,0.0,0.0,0.0,0.0,0.0,0.0,0.0,0.0,0.0,0.0,0.0,0.0
,,124040.986973,4.246156454086304,0.0,0.0,0.0,0.0,0.0,0.0,0.0,0.0,0.0,0.0,0.0,62039.0,0.04,1.01,-0.16,14.88,14.02,4.7,-21.46,42.16,-9.6,62048.0,0.04,0.95,-0.15,8.66,20.0,14.45,-20.56,42.31,-9.45,0.0,0.0,0.0,0.0,0.0,0.0,0.0,0.0,0.0,0.0,0.0,0.0,0.0,0.0,0.0,0.0,0.0,0.0,0.0,0.0,0.0
,,124041.004269,4.2634570598602295,0.0,0.0,0.0,0.0,0.0,0.0,0.0,0.0,0.0,0.0,0.0,62057.0,0.06,0.89,-0.09,-2.99,26.77,16.71,-21.16,40.66,-9.6,62066.0,0.02,0.91,-0.08,-21.83,25.55,12.13,-21.46,42.46,-9.15,0.0,0.0,0.0,0.0,0.0,0.0,0.0,0.0,0.0,0.0,0.0,0.0,0.0,0.0,0.0,0.0,0.0,0.0,0.0,0.0,0.0
,,124041.021793,4.280982732772827,0.0,0.0,0.0,0.0,0.0,0.0,0.0,0.0,0.0,0.0,0.0,62075.0,0.02,0.95,-0.12,-35.85,17.74,10.43,-21.46,42.46,-9.15,62084.0,0.02,1.01,-0.15,-37.2,7.62,10.3,-20.71,42.16,-7.5,0.0,0.0,0.0,0.0,0.0,0.0,0.0,0.0,0.0,0.0,0.0,0.0,0.0,0.0,0.0,0.0,0.0,0.0,0.0,0.0,0.0
,,124041.03978,4.298965215682983,0.0,0.0,0.0,0.0,0.0,0.0,0.0,0.0,0.0,0.0,0.0,62093.0,0.01,0.98,-0.19,-39.88,-3.41,15.98,-21.46,41.11,-7.5,62102.0,0.08,0.96,-0.15,-31.16,-10.79,13.11,-21.91,41.26,-5.7,0.0,0.0,0.0,0.0,0.0,0.0,0.0,0.0,0.0,0.0,0.0,0.0,0.0,0.0,0.0,0.0,0.0,0.0,0.0,0.0,0.0
,,124041.057723,4.316920518875122,0.0,0.0,0.0,0.0,0.0,0.0,0.0,0.0,0.0,0.0,0.0,62110.0,0.1,0.89,-0.17,-32.93,-14.7,2.68,-21.76,40.06,-4.5,62119.0,0.07,0.88,-0.23,-63.6,-8.54,-15.12,-21.16,41.71,-4.2,0.0,0.0,0.0,0.0,0.0,0.0,0.0,0.0,0.0,0.0,0.0,0.0,0.0,0.0,0.0,0.0,0.0,0.0,0.0,0.0,0.0
,,124041.104897,4.3640947341918945,0.0,0.0,0.0,0.0,0.0,0.0,0.0,0.0,0.0,0.0,0.0,62128.0,0.06,0.91,-0.13,-91.1,8.35,-21.83,-21.91,42.61,-3.6,62166.0,0.06,1.05,-0.08,-112.74,15.43,-25.18,-19.8,42.01,-0.9,0.0,0.0,0.0,0.0,0.0,0.0,0.0,0.0,0.0,0.0,0.0,0.0,0.0,0.0,0.0,0.0,0.0,0.0,0.0,0.0,0.0
,,124041.122609,4.3818137645721436,0.0,0.0,0.0,0.0,0.0,0.0,0.0,0.0,0.0,0.0,0.0,62175.0,0.02,1.11,0.02,-131.59,17.13,-21.95,-19.8,42.01,-0.9,62184.0,0.03,1.05,0.07,-132.8,6.46,-9.57,-18.75,42.31,-0.6,0.0,0.0,0.0,0.0,0.0,0.0,0.0,0.0,0.0,0.0,0.0,0.0,0.0,0.0,0.0,0.0,0.0,0.0,0.0,0.0,0.0
,,124041.140211,4.399396657943726,0.0,0.0,0.0,0.0,0.0,0.0,0.0,0.0,0.0,0.0,0.0,62193.0,0.02,0.97,0.08,-116.46,-8.54,-1.71,-19.2,40.51,-0.9,62202.0,0.02,0.91,0.1,-105.43,-20.85,-1.4,-19.2,40.51,1.05,0.0,0.0,0.0,0.0,0.0,0.0,0.0,0.0,0.0,0.0,0.0,0.0,0.0,0.0,0.0,0.0,0.0,0.0,0.0,0.0,0.0
,,124041.158241,4.417437553405762,0.0,0.0,0.0,0.0,0.0,0.0,0.0,0.0,0.0,0.0,0.0,62211.0,-0.01,0.92,0.12,-102.01,-32.93,-6.04,-18.75,39.16,0.15,62220.0,-0.03,1.03,0.11,-90.0,-41.04,-4.33,-18.3,41.71,0.3,0.0,0.0,0.0,0.0,0.0,0.0,0.0,0.0,0.0,0.0,0.0,0.0,0.0,0.0,0.0,0.0,0.0,0.0,0.0,0.0,0.0
,,124041.175844,4.435032367706299,0.0,0.0,0.0,0.0,0.0,0.0,0.0,0.0,0.0,0.0,0.0,62229.0,-0.04,1.08,0.05,-87.99,-47.56,8.05,-17.7,40.51,0.75,62238.0,-0.01,1.07,0.04,-95.18,-41.28,20.18,-18.15,40.51,0.15,0.0,0.0,0.0,0.0,0.0,0.0,0.0,0.0,0.0,0.0,0.0,0.0,0.0,0.0,0.0,0.0,0.0,0.0,0.0,0.0,0.0
,,124041.193755,4.452933311462402,0.0,0.0,0.0,0.0,0.0,0.0,0.0,0.0,0.0,0.0,0.0,62247.0,0.01,1.08,0.04,-98.54,-28.29,30.06,-18.0,40.66,0.9,62255.0,0.02,1.14,0.02,-87.99,-13.84,37.68,-18.0,40.66,0.9,0.0,0.0,0.0,0.0,0.0,0.0,0.0,0.0,0.0,0.0,0.0,0.0,0.0,0.0,0.0,0.0,0.0,0.0,0.0,0.0,0.0
,,124041.211421,4.470606327056885,0.0,0.0,0.0,0.0,0.0,0.0,0.0,0.0,0.0,0.0,0.0,62264.0,0.07,1.13,0.11,-64.21,0.43,43.78,-16.05,39.46,2.1,62273.0,0.09,1.07,0.15,-41.95,6.65,39.7,-17.55,40.66,1.35,0.0,0.0,0.0,0.0,0.0,0.0,0.0,0.0,0.0,0.0,0.0,0.0,0.0,0.0,0.0,0.0,0.0,0.0,0.0,0.0,0.0
,,124041.26012,4.51930832862854,0.0,0.0,0.0,0.0,0.0,0.0,0.0,0.0,0.0,0.0,0.0,62282.0,0.19,0.98,0.23,-30.0,8.29,33.78,-17.1,40.21,2.4,62322.0,0.13,0.92,0.17,-24.94,3.35,24.94,-14.25,42.01,5.85,0.0,0.0,0.0,0.0,0.0,0.0,0.0,0.0,0.0,0.0,0.0,0.0,0.0,0.0,0.0,0.0,0.0,0.0,0.0,0.0,0.0
,,124041.277676,4.5368733406066895,0.0,0.0,0.0,0.0,0.0,0.0,0.0,0.0,0.0,0.0,0.0,62331.0,0.15,0.81,0.08,-9.82,3.05,16.22,-15.0,42.61,5.1,62339.0,0.07,0.76,0.05,-15.12,12.13,-7.99,-15.0,41.26,5.55,0.0,0.0,0.0,0.0,0.0,0.0,0.0,0.0,0.0,0.0,0.0,0.0,0.0,0.0,0.0,0.0,0.0,0.0,0.0,0.0,0.0
,,124041.295469,4.554664611816406,0.0,0.0,0.0,0.0,0.0,0.0,0.0,0.0,0.0,0.0,0.0,62348.0,0.05,0.89,0.09,-47.87,19.82,-22.13,-14.85,42.16,7.65,62357.0,0.07,0.94,0.12,-80.24,19.51,-23.41,-13.95,40.96,7.2,0.0,0.0,0.0,0.0,0.0,0.0,0.0,0.0,0.0,0.0,0.0,0.0,0.0,0.0,0.0,0.0,0.0,0.0,0.0,0.0,0.0
,,124041.313437,4.572618722915649,0.0,0.0,0.0,0.0,0.0,0.0,0.0,0.0,0.0,0.0,0.0,62366.0,0.05,0.95,0.12,-99.45,14.94,-27.62,-14.85,41.11,7.35,62375.0,0.02,1.01,0.14,-113.96,12.26,-33.48,-14.85,41.11,7.35,0.0,0.0,0.0,0.0,0.0,0.0,0.0,0.0,0.0,0.0,0.0,0.0,0.0,0.0,0.0,0.0,0.0,0.0,0.0,0.0,0.0
,,124041.331122,4.5903000831604,0.0,0.0,0.0,0.0,0.0,0.0,0.0,0.0,0.0,0.0,0.0,62384.0,0.01,1.04,0.18,-118.78,14.57,-35.98,-13.05,41.71,9.0,62393.0,-0.0,1.08,0.22,-103.11,15.0,-36.59,-14.4,43.21,9.0,0.0,0.0,0.0,0.0,0.0,0.0,0.0,0.0,0.0,0.0,0.0,0.0,0.0,0.0,0.0,0.0,0.0,0.0,0.0,0.0,0.0
,,124041.349224,4.6084065437316895,0.0,0.0,0.0,0.0,0.0,0.0,0.0,0.0,0.0,0.0,0.0,62402.0,-0.01,1.13,0.24,-84.39,12.93,-32.56,-11.85,40.96,9.3,62411.0,-0.0,1.13,0.26,-70.12,12.87,-21.95,-13.2,43.06,9.6,0.0,0.0,0.0,0.0,0.0,0.0,0.0,0.0,0.0,0.0,0.0,0.0,0.0,0.0,0.0,0.0,0.0,0.0,0.0,0.0,0.0
,,124041.367461,4.626655101776123,0.0,0.0,0.0,0.0,0.0,0.0,0.0,0.0,0.0,0.0,0.0,62420.0,0.04,1.09,0.33,-67.26,14.09,-9.94,-12.75,41.71,10.35,62429.0,0.02,0.98,0.34,-74.76,13.6,-3.48,-13.8,42.16,9.75,0.0,0.0,0.0,0.0,0.0,0.0,0.0,0.0,0.0,0.0,0.0,0.0,0.0,0.0,0.0,0.0,0.0,0.0,0.0,0.0,0.0
,,124041.414639,4.673824787139893,0.0,0.0,0.0,0.0,0.0,0.0,0.0,0.0,0.0,0.0,0.0,62438.0,0.05,0.83,0.3,-83.48,11.1,3.29,-12.3,42.16,9.0,62476.0,0.03,0.81,0.29,-93.84,9.94,-0.43,-12.45,42.31,12.0,0.0,0.0,0.0,0.0,0.0,0.0,0.0,0.0,0.0,0.0,0.0,0.0,0.0,0.0,0.0,0.0,0.0,0.0,0.0,0.0,0.0
,,124041.432144,4.691338777542114,0.0,0.0,0.0,0.0,0.0,0.0,0.0,0.0,0.0,0.0,0.0,62485.0,0.02,0.89,0.34,-110.91,9.7,-5.49,-12.45,42.31,12.0,62494.0,-0.02,1.04,0.38,-120.91,7.56,-9.33,-12.45,42.31,10.2,0.0,0.0,0.0,0.0,0.0,0.0,0.0,0.0,0.0,0.0,0.0,0.0,0.0,0.0,0.0,0.0,0.0,0.0,0.0,0.0,0.0
,,124041.450062,4.709251403808594,0.0,0.0,0.0,0.0,0.0,0.0,0.0,0.0,0.0,0.0,0.0,62503.0,-0.01,1.08,0.45,-106.4,5.06,-4.51,-12.15,42.31,10.65,62512.0,-0.04,1.09,0.48,-72.2,4.27,-3.05,-11.4,41.56,11.25,0.0,0.0,0.0,0.0,0.0,0.0,0.0,0.0,0.0,0.0,0.0,0.0,0.0,0.0,0.0,0.0,0.0,0.0,0.0,0.0,0.0
,,124041.467702,4.7268898487091064,0.0,0.0,0.0,0.0,0.0,0.0,0.0,0.0,0.0,0.0,0.0,62521.0,-0.01,1.06,0.5,-31.89,4.63,1.83,-11.1,42.61,12.0,62529.0,0.02,0.93,0.39,3.48,2.62,4.82,-11.7,42.46,11.4,0.0,0.0,0.0,0.0,0.0,0.0,0.0,0.0,0.0,0.0,0.0,0.0,0.0,0.0,0.0,0.0,0.0,0.0,0.0,0.0,0.0
,,124041.485734,4.7449259757995605,0.0,0.0,0.0,0.0,0.0,0.0,0.0,0.0,0.0,0.0,0.0,62538.0,0.02,0.9,0.4,15.49,8.54,2.56,-10.8,43.36,10.2,62547.0,0.02,0.88,0.38,13.29,9.21,2.56,-12.0,42.76,11.4,0.0,0.0,0.0,0.0,0.0,0.0,0.0,0.0,0.0,0.0,0.0,0.0,0.0,0.0,0.0,0.0,0.0,0.0,0.0,0.0,0.0
,,124041.503619,4.762818098068237,0.0,0.0,0.0,0.0,0.0,0.0,0.0,0.0,0.0,0.0,0.0,62556.0,0.03,0.92,0.38,1.65,4.27,2.56,-10.95,42.16,11.4,62565.0,-0.01,0.95,0.35,-11.46,-1.16,4.15,-10.95,42.16,11.4,0.0,0.0,0.0,0.0,0.0,0.0,0.0,0.0,0.0,0.0,0.0,0.0,0.0,0.0,0.0,0.0,0.0,0.0,0.0,0.0,0.0
,,124041.520842,4.780032634735107,0.0,0.0,0.0,0.0,0.0,0.0,0.0,0.0,0.0,0.0,0.0,62574.0,0.0,0.93,0.37,-29.09,-1.1,6.77,-10.65,43.51,11.85,62583.0,0.01,0.88,0.38,-45.91,2.2,5.49,-12.3,41.71,12.15,0.0,0.0,0.0,0.0,0.0,0.0,0.0,0.0,0.0,0.0,0.0,0.0,0.0,0.0,0.0,0.0,0.0,0.0,0.0,0.0,0.0
,,124041.538648,4.79784631729126,0.0,0.0,0.0,0.0,0.0,0.0,0.0,0.0,0.0,0.0,0.0,62591.0,0.0,0.91,0.43,-53.6,6.04,3.6,-10.95,41.41,12.15,62600.0,0.02,0.94,0.48,-49.88,6.04,3.29,-9.15,42.76,11.4,0.0,0.0,0.0,0.0,0.0,0.0,0.0,0.0,0.0,0.0,0.0,0.0,0.0,0.0,0.0,0.0,0.0,0.0,0.0,0.0,0.0
,,124041.587224,4.846432209014893,0.0,0.0,0.0,0.0,0.0,0.0,0.0,0.0,0.0,0.0,0.0,62640.0,0.02,0.95,0.47,-36.4,2.44,3.17,-7.2,42.31,14.25,62649.0,0.02,0.95,0.43,-22.07,2.8,3.6,-8.7,41.26,15.3,0.0,0.0,0.0,0.0,0.0,0.0,0.0,0.0,0.0,0.0,0.0,0.0,0.0,0.0,0.0,0.0,0.0,0.0,0.0,0.0,0.0
,,124041.604715,4.863908767700195,0.0,0.0,0.0,0.0,0.0,0.0,0.0,0.0,0.0,0.0,0.0,62658.0,0.01,0.96,0.39,-17.5,4.63,4.45,-7.5,41.11,14.85,62667.0,0.02,0.93,0.41,-19.15,3.72,9.15,-7.65,40.21,15.0,0.0,0.0,0.0,0.0,0.0,0.0,0.0,0.0,0.0,0.0,0.0,0.0,0.0,0.0,0.0,0.0,0.0,0.0,0.0,0.0,0.0
,,124041.622333,4.881511688232422,0.0,0.0,0.0,0.0,0.0,0.0,0.0,0.0,0.0,0.0,0.0,62675.0,0.0,0.92,0.45,-22.74,2.07,10.61,-7.65,40.21,15.0,62684.0,0.02,0.93,0.41,-30.49,-1.4,11.16,-8.85,40.66,14.85,0.0,0.0,0.0,0.0,0.0,0.0,0.0,0.0,0.0,0.0,0.0,0.0,0.0,0.0,0.0,0.0,0.0,0.0,0.0,0.0,0.0
,,124041.640148,4.89933180809021,0.0,0.0,0.0,0.0,0.0,0.0,0.0,0.0,0.0,0.0,0.0,62693.0,0.02,0.9,0.41,-39.21,-3.48,13.78,-7.2,41.26,16.05,62702.0,0.03,0.9,0.49,-52.26,-5.37,14.39,-7.8,41.41,16.2,0.0,0.0,0.0,0.0,0.0,0.0,0.0,0.0,0.0,0.0,0.0,0.0,0.0,0.0,0.0,0.0,0.0,0.0,0.0,0.0,0.0
,,124041.658154,4.917356491088867,0.0,0.0,0.0,0.0,0.0,0.0,0.0,0.0,0.0,0.0,0.0,62711.0,0.04,0.86,0.52,-67.74,-9.09,15.3,-7.8,42.46,14.85,62720.0,0.03,0.83,0.51,-81.52,-15.12,13.29,-8.1,41.71,15.45,0.0,0.0,0.0,0.0,0.0,0.0,0.0,0.0,0.0,0.0,0.0,0.0,0.0,0.0,0.0,0.0,0.0,0.0,0.0,0.0,0.0
,,124041.676054,4.935243129730225,0.0,0.0,0.0,0.0,0.0,0.0,0.0,0.0,0.0,0.0,0.0,62729.0,0.07,0.87,0.51,-86.46,-19.94,8.41,-6.15,40.51,16.65,62738.0,0.08,0.88,0.57,-81.28,-19.57,6.65,-7.05,39.61,16.2,0.0,0.0,0.0,0.0,0.0,0.0,0.0,0.0,0.0,0.0,0.0,0.0,0.0,0.0,0.0,0.0,0.0,0.0,0.0,0.0,0.0
,,124041.69365,4.952833890914917,0.0,0.0,0.0,0.0,0.0,0.0,0.0,0.0,0.0,0.0,0.0,62746.0,0.05,0.89,0.52,-72.93,-20.43,4.63,-7.05,41.11,16.2,62755.0,0.03,0.87,0.49,-58.6,-18.23,1.52,-7.05,41.11,16.2,0.0,0.0,0.0,0.0,0.0,0.0,0.0,0.0,0.0,0.0,0.0,0.0,0.0,0.0,0.0,0.0,0.0,0.0,0.0,0.0,0.0
,,124041.741302,5.000490427017212,0.0,0.0,0.0,0.0,0.0,0.0,0.0,0.0,0.0,0.0,0.0,62764.0,0.03,0.89,0.51,-43.35,-12.07,0.61,-5.4,40.06,16.8,62803.0,0.04,0.89,0.51,-33.48,-6.77,2.99,-4.5,40.96,19.35,0.0,0.0,0.0,0.0,0.0,0.0,0.0,0.0,0.0,0.0,0.0,0.0,0.0,0.0,0.0,0.0,0.0,0.0,0.0,0.0,0.0
,,124041.759011,5.018200874328613,0.0,0.0,0.0,0.0,0.0,0.0,0.0,0.0,0.0,0.0,0.0,62812.0,0.07,0.83,0.5,-31.59,0.12,3.41,-4.8,42.31,17.7,62820.0,0.04,0.79,0.52,-34.76,9.02,-0.37,-4.05,40.96,17.1,0.0,0.0,0.0,0.0,0.0,0.0,0.0,0.0,0.0,0.0,0.0,0.0,0.0,0.0,0.0,0.0,0.0,0.0,0.0,0.0,0.0
,,124041.776463,5.035648584365845,0.0,0.0,0.0,0.0,0.0,0.0,0.0,0.0,0.0,0.0,0.0,62829.0,0.04,0.8,0.55,-37.68,10.12,-2.56,-5.1,41.26,17.1,62838.0,0.04,0.83,0.57,-40.49,5.98,-5.43,-4.05,42.01,19.05,0.0,0.0,0.0,0.0,0.0,0.0,0.0,0.0,0.0,0.0,0.0,0.0,0.0,0.0,0.0,0.0,0.0,0.0,0.0,0.0,0.0
,,124041.793973,5.053157091140747,0.0,0.0,0.0,0.0,0.0,0.0,0.0,0.0,0.0,0.0,0.0,62847.0,0.04,0.86,0.58,-45.06,3.41,-5.67,-5.55,39.91,17.4,62856.0,0.01,0.9,0.59,-45.61,0.06,-4.94,-4.95,40.66,17.25,0.0,0.0,0.0,0.0,0.0,0.0,0.0,0.0,0.0,0.0,0.0,0.0,0.0,0.0,0.0,0.0,0.0,0.0,0.0,0.0,0.0
,,124041.811493,5.070677280426025,0.0,0.0,0.0,0.0,0.0,0.0,0.0,0.0,0.0,0.0,0.0,62865.0,0.02,0.91,0.6,-40.98,-1.95,1.77,-4.95,40.66,17.25,62873.0,0.03,0.85,0.54,-35.85,-4.09,5.79,-3.9,40.66,18.6,0.0,0.0,0.0,0.0,0.0,0.0,0.0,0.0,0.0,0.0,0.0,0.0,0.0,0.0,0.0,0.0,0.0,0.0,0.0,0.0,0.0
,,124041.829046,5.088232755661011,0.0,0.0,0.0,0.0,0.0,0.0,0.0,0.0,0.0,0.0,0.0,62882.0,0.02,0.83,0.53,-28.41,2.93,4.02,-3.3,39.31,19.2,62891.0,0.05,0.81,0.57,-24.21,7.5,3.23,-3.75,41.26,17.4,0.0,0.0,0.0,0.0,0.0,0.0,0.0,0.0,0.0,0.0,0.0,0.0,0.0,0.0,0.0,0.0,0.0,0.0,0.0,0.0,0.0
,,124041.848157,5.107343435287476,0.0,0.0,0.0,0.0,0.0,0.0,0.0,0.0,0.0,0.0,0.0,62900.0,0.05,0.79,0.63,-24.82,8.66,2.8,-3.3,40.36,18.6,62909.0,0.06,0.78,0.64,-35.12,6.22,4.45,-3.75,42.01,18.45,0.0,0.0,0.0,0.0,0.0,0.0,0.0,0.0,0.0,0.0,0.0,0.0,0.0,0.0,0.0,0.0,0.0,0.0,0.0,0.0,0.0
,,124041.868794,5.12799334526062,0.0,0.0,0.0,0.0,0.0,0.0,0.0,0.0,0.0,0.0,0.0,62917.0,0.05,0.79,0.63,-42.56,4.33,4.33,-2.85,42.16,18.15,62926.0,0.05,0.8,0.62,-47.8,5.79,3.35,-2.85,41.71,18.9,0.0,0.0,0.0,0.0,0.0,0.0,0.0,0.0,0.0,0.0,0.0,0.0,0.0,0.0,0.0,0.0,0.0,0.0,0.0,0.0,0.0
,,124041.91361,5.172809362411499,0.0,0.0,0.0,0.0,0.0,0.0,0.0,0.0,0.0,0.0,0.0,62966.0,0.03,0.81,0.59,-48.66,8.78,0.98,1.05,42.46,21.31,62975.0,0.03,0.82,0.64,-45.24,8.48,1.34,1.05,42.46,21.31,0.0,0.0,0.0,0.0,0.0,0.0,0.0,0.0,0.0,0.0,0.0,0.0,0.0,0.0,0.0,0.0,0.0,0.0,0.0,0.0,0.0
,,124041.931117,5.190332889556885,0.0,0.0,0.0,0.0,0.0,0.0,0.0,0.0,0.0,0.0,0.0,62984.0,0.03,0.81,0.64,-47.07,4.7,2.07,-0.6,42.01,20.11,62993.0,0.04,0.8,0.65,-48.96,1.16,2.01,0.15,42.31,19.35,0.0,0.0,0.0,0.0,0.0,0.0,0.0,0.0,0.0,0.0,0.0,0.0,0.0,0.0,0.0,0.0,0.0,0.0,0.0,0.0,0.0
,,124041.948662,5.20784854888916,0.0,0.0,0.0,0.0,0.0,0.0,0.0,0.0,0.0,0.0,0.0,63001.0,0.03,0.79,0.66,-45.49,-0.79,-0.43,0.3,43.81,20.56,63010.0,0.04,0.79,0.65,-41.28,1.16,-2.38,-0.6,42.01,19.35,0.0,0.0,0.0,0.0,0.0,0.0,0.0,0.0,0.0,0.0,0.0,0.0,0.0,0.0,0.0,0.0,0.0,0.0,0.0,0.0,0.0
,,124041.965936,5.225113153457642,0.0,0.0,0.0,0.0,0.0,0.0,0.0,0.0,0.0,0.0,0.0,63019.0,0.04,0.79,0.65,-35.73,2.38,-3.66,-0.6,42.31,20.71,63028.0,0.03,0.76,0.65,-34.76,1.77,-4.33,-0.6,41.26,20.11,0.0,0.0,0.0,0.0,0.0,0.0,0.0,0.0,0.0,0.0,0.0,0.0,0.0,0.0,0.0,0.0,0.0,0.0,0.0,0.0,0.0
,,124041.983556,5.242735385894775,0.0,0.0,0.0,0.0,0.0,0.0,0.0,0.0,0.0,0.0,0.0,63037.0,0.03,0.73,0.67,-37.13,0.24,-3.78,-0.45,41.41,20.56,63045.0,0.04,0.73,0.68,-42.56,-3.05,-3.41,0.75,41.56,20.56,0.0,0.0,0.0,0.0,0.0,0.0,0.0,0.0,0.0,0.0,0.0,0.0,0.0,0.0,0.0,0.0,0.0,0.0,0.0,0.0,0.0
,,124042.001076,5.260273218154907,0.0,0.0,0.0,0.0,0.0,0.0,0.0,0.0,0.0,0.0,0.0,63054.0,0.04,0.74,0.73,-46.65,-4.76,-1.65,0.75,41.56,21.46,63063.0,0.05,0.73,0.73,-48.35,-5.91,0.55,1.5,40.96,20.71,0.0,0.0,0.0,0.0,0.0,0.0,0.0,0.0,0.0,0.0,0.0,0.0,0.0,0.0,0.0,0.0,0.0,0.0,0.0,0.0,0.0
,,124042.018714,5.277892589569092,0.0,0.0,0.0,0.0,0.0,0.0,0.0,0.0,0.0,0.0,0.0,63072.0,0.05,0.74,0.69,-50.98,-0.67,0.85,1.35,43.21,20.26,63081.0,0.06,0.75,0.72,-52.38,6.16,2.32,1.35,42.46,20.86,0.0,0.0,0.0,0.0,0.0,0.0,0.0,0.0,0.0,0.0,0.0,0.0,0.0,0.0,0.0,0.0,0.0,0.0,0.0,0.0,0.0
,,124042.067457,5.326655149459839,0.0,0.0,0.0,0.0,0.0,0.0,0.0,0.0,0.0,0.0,0.0,63089.0,0.02,0.74,0.74,-50.79,9.57,2.07,1.35,42.16,21.91,63129.0,0.03,0.75,0.72,-50.61,3.54,0.79,5.25,43.21,22.36,0.0,0.0,0.0,0.0,0.0,0.0,0.0,0.0,0.0,0.0,0.0,0.0,0.0,0.0,0.0,0.0,0.0,0.0,0.0,0.0,0.0
,,124042.085578,5.34477424621582,0.0,0.0,0.0,0.0,0.0,0.0,0.0,0.0,0.0,0.0,0.0,63138.0,-0.01,0.74,0.75,-45.18,3.84,-1.04,4.5,42.46,22.36,63147.0,0.03,0.74,0.71,-40.85,0.85,2.93,2.7,43.21,22.66,0.0,0.0,0.0,0.0,0.0,0.0,0.0,0.0,0.0,0.0,0.0,0.0,0.0,0.0,0.0,0.0,0.0,0.0,0.0,0.0,0.0
,,124042.10417,5.363367557525635,0.0,0.0,0.0,0.0,0.0,0.0,0.0,0.0,0.0,0.0,0.0,63156.0,0.01,0.73,0.68,-33.17,0.18,1.71,3.75,41.41,20.56,63166.0,0.01,0.69,0.68,-30.0,3.29,-0.61,6.3,43.21,20.86,0.0,0.0,0.0,0.0,0.0,0.0,0.0,0.0,0.0,0.0,0.0,0.0,0.0,0.0,0.0,0.0,0.0,0.0,0.0,0.0,0.0
,,124042.122355,5.381555080413818,0.0,0.0,0.0,0.0,0.0,0.0,0.0,0.0,0.0,0.0,0.0,63175.0,0.03,0.69,0.7,-28.84,5.49,-1.34,6.3,43.21,20.86,63184.0,0.03,0.68,0.75,-30.43,1.77,-0.85,5.4,41.26,21.46,0.0,0.0,0.0,0.0,0.0,0.0,0.0,0.0,0.0,0.0,0.0,0.0,0.0,0.0,0.0,0.0,0.0,0.0,0.0,0.0,0.0
,,124042.140504,5.3996803760528564,0.0,0.0,0.0,0.0,0.0,0.0,0.0,0.0,0.0,0.0,0.0,63193.0,0.03,0.68,0.74,-33.54,-4.63,1.04,4.95,43.06,22.06,63202.0,0.06,0.67,0.72,-37.5,-4.27,1.1,7.5,41.56,22.51,0.0,0.0,0.0,0.0,0.0,0.0,0.0,0.0,0.0,0.0,0.0,0.0,0.0,0.0,0.0,0.0,0.0,0.0,0.0,0.0,0.0
,,124042.159497,5.418684005737305,0.0,0.0,0.0,0.0,0.0,0.0,0.0,0.0,0.0,0.0,0.0,63211.0,0.05,0.66,0.73,-40.12,4.51,-2.32,7.95,41.71,22.66,63221.0,0.07,0.63,0.77,-43.05,8.23,-6.16,7.95,41.71,25.06,0.0,0.0,0.0,0.0,0.0,0.0,0.0,0.0,0.0,0.0,0.0,0.0,0.0,0.0,0.0,0.0,0.0,0.0,0.0,0.0,0.0
,,124042.176835,5.436022996902466,0.0,0.0,0.0,0.0,0.0,0.0,0.0,0.0,0.0,0.0,0.0,63229.0,0.05,0.63,0.77,-53.9,8.35,-11.4,8.4,42.46,24.01,63238.0,0.04,0.66,0.79,-61.22,5.79,-14.7,8.7,42.16,22.96,0.0,0.0,0.0,0.0,0.0,0.0,0.0,0.0,0.0,0.0,0.0,0.0,0.0,0.0,0.0,0.0,0.0,0.0,0.0,0.0,0.0
,,124042.194488,5.453685998916626,0.0,0.0,0.0,0.0,0.0,0.0,0.0,0.0,0.0,0.0,0.0,63247.0,0.03,0.69,0.78,-64.09,3.35,-16.1,9.6,41.56,23.86,63256.0,0.01,0.68,0.81,-68.6,1.71,-15.55,9.15,40.21,22.81,0.0,0.0,0.0,0.0,0.0,0.0,0.0,0.0,0.0,0.0,0.0,0.0,0.0,0.0,0.0,0.0,0.0,0.0,0.0,0.0,0.0
,,124042.245597,5.504786491394043,0.0,0.0,0.0,0.0,0.0,0.0,0.0,0.0,0.0,0.0,0.0,63297.0,0.0,0.66,0.81,-67.68,-0.43,-13.48,12.6,40.66,24.31,63306.0,0.01,0.67,0.79,-65.37,-1.59,-11.34,10.95,40.51,23.11,0.0,0.0,0.0,0.0,0.0,0.0,0.0,0.0,0.0,0.0,0.0,0.0,0.0,0.0,0.0,0.0,0.0,0.0,0.0,0.0,0.0
,,124042.263622,5.522810697555542,0.0,0.0,0.0,0.0,0.0,0.0,0.0,0.0,0.0,0.0,0.0,63316.0,0.02,0.65,0.79,-60.37,-2.26,-7.5,12.0,39.91,23.86,63325.0,0.0,0.64,0.82,-55.79,-2.5,-4.63,12.0,39.91,23.86,0.0,0.0,0.0,0.0,0.0,0.0,0.0,0.0,0.0,0.0,0.0,0.0,0.0,0.0,0.0,0.0,0.0,0.0,0.0,0.0,0.0
,,124042.282903,5.54208779335022,0.0,0.0,0.0,0.0,0.0,0.0,0.0,0.0,0.0,0.0,0.0,63334.0,0.02,0.62,0.79,-51.89,-3.84,-2.62,13.95,39.31,23.26,63344.0,0.04,0.59,0.77,-51.77,-1.4,-2.8,12.3,39.91,23.41,0.0,0.0,0.0,0.0,0.0,0.0,0.0,0.0,0.0,0.0,0.0,0.0,0.0,0.0,0.0,0.0,0.0,0.0,0.0,0.0,0.0
,,124042.300857,5.560070753097534,0.0,0.0,0.0,0.0,0.0,0.0,0.0,0.0,0.0,0.0,0.0,63353.0,0.04,0.56,0.79,-58.9,3.72,-6.28,12.15,39.61,21.91,63362.0,0.1,0.53,0.85,-71.65,5.24,-12.93,12.15,40.06,22.66,0.0,0.0,0.0,0.0,0.0,0.0,0.0,0.0,0.0,0.0,0.0,0.0,0.0,0.0,0.0,0.0,0.0,0.0,0.0,0.0,0.0
,,124042.319775,5.578956842422485,0.0,0.0,0.0,0.0,0.0,0.0,0.0,0.0,0.0,0.0,0.0,63371.0,0.0,0.58,0.9,-93.78,4.27,-28.72,12.0,42.31,23.41,63381.0,-0.05,0.59,0.94,-109.82,-5.61,-24.7,11.25,38.71,23.41,0.0,0.0,0.0,0.0,0.0,0.0,0.0,0.0,0.0,0.0,0.0,0.0,0.0,0.0,0.0,0.0,0.0,0.0,0.0,0.0,0.0
,,124042.337903,5.597089767456055,0.0,0.0,0.0,0.0,0.0,0.0,0.0,0.0,0.0,0.0,0.0,63390.0,-0.02,0.62,0.95,-105.49,-22.68,-17.07,13.35,40.21,23.41,63399.0,0.05,0.59,0.9,-95.12,-39.51,-12.44,13.2,40.06,22.96,0.0,0.0,0.0,0.0,0.0,0.0,0.0,0.0,0.0,0.0,0.0,0.0,0.0,0.0,0.0,0.0,0.0,0.0,0.0,0.0,0.0
,,124042.357031,5.616221189498901,0.0,0.0,0.0,0.0,0.0,0.0,0.0,0.0,0.0,0.0,0.0,63409.0,0.03,0.55,0.86,-88.6,-38.72,-8.54,12.15,38.56,22.96,63418.0,0.06,0.48,0.88,-79.45,-31.52,-9.09,12.75,39.46,23.41,0.0,0.0,0.0,0.0,0.0,0.0,0.0,0.0,0.0,0.0,0.0,0.0,0.0,0.0,0.0,0.0,0.0,0.0,0.0,0.0,0.0
,,124042.402978,5.662165403366089,0.0,0.0,0.0,0.0,0.0,0.0,0.0,0.0,0.0,0.0,0.0,63455.0,0.04,0.46,0.9,-70.55,-28.9,-8.96,16.2,40.51,24.16,63464.0,0.04,0.43,0.89,-66.77,-29.82,-8.9,13.35,38.71,23.41,0.0,0.0,0.0,0.0,0.0,0.0,0.0,0.0,0.0,0.0,0.0,0.0,0.0,0.0,0.0,0.0,0.0,0.0,0.0,0.0,0.0
,,124042.421496,5.680677652359009,0.0,0.0,0.0,0.0,0.0,0.0,0.0,0.0,0.0,0.0,0.0,63474.0,0.03,0.46,0.9,-69.45,-30.49,-9.51,13.35,39.91,23.86,63483.0,0.04,0.47,0.94,-72.01,-29.15,-6.89,13.95,41.11,24.01,0.0,0.0,0.0,0.0,0.0,0.0,0.0,0.0,0.0,0.0,0.0,0.0,0.0,0.0,0.0,0.0,0.0,0.0,0.0,0.0,0.0
,,124042.440252,5.6994359493255615,0.0,0.0,0.0,0.0,0.0,0.0,0.0,0.0,0.0,0.0,0.0,63492.0,0.06,0.46,0.9,-66.1,-33.35,-6.16,13.35,41.26,22.81,63502.0,0.04,0.47,0.91,-57.56,-27.99,-2.99,14.7,40.06,24.31,0.0,0.0,0.0,0.0,0.0,0.0,0.0,0.0,0.0,0.0,0.0,0.0,0.0,0.0,0.0,0.0,0.0,0.0,0.0,0.0,0.0
,,124042.459002,5.718209505081177,0.0,0.0,0.0,0.0,0.0,0.0,0.0,0.0,0.0,0.0,0.0,63511.0,0.05,0.46,0.91,-42.8,-20.18,-1.59,14.4,39.46,24.16,63520.0,0.05,0.46,0.93,-33.54,-11.52,0.79,15.3,40.66,22.66,0.0,0.0,0.0,0.0,0.0,0.0,0.0,0.0,0.0,0.0,0.0,0.0,0.0,0.0,0.0,0.0,0.0,0.0,0.0,0.0,0.0
,,124042.477435,5.736621379852295,0.0,0.0,0.0,0.0,0.0,0.0,0.0,0.0,0.0,0.0,0.0,63530.0,0.05,0.43,0.93,-26.52,-7.2,2.07,15.0,40.36,23.26,63539.0,0.05,0.42,0.9,-18.29,-5.91,2.01,15.15,41.56,23.11,0.0,0.0,0.0,0.0,0.0,0.0,0.0,0.0,0.0,0.0,0.0,0.0,0.0,0.0,0.0,0.0,0.0,0.0,0.0,0.0,0.0
,,124042.495932,5.755120754241943,0.0,0.0,0.0,0.0,0.0,0.0,0.0,0.0,0.0,0.0,0.0,63548.0,0.05,0.39,0.91,-14.02,-5.0,0.12,14.4,39.91,22.51,63557.0,0.06,0.39,0.89,-10.37,-3.9,-1.28,14.85,40.96,23.41,0.0,0.0,0.0,0.0,0.0,0.0,0.0,0.0,0.0,0.0,0.0,0.0,0.0,0.0,0.0,0.0,0.0,0.0,0.0,0.0,0.0
,,124042.514222,5.773418188095093,0.0,0.0,0.0,0.0,0.0,0.0,0.0,0.0,0.0,0.0,0.0,63567.0,0.09,0.36,0.91,-8.96,-1.95,-1.34,15.0,40.06,23.71,63576.0,0.06,0.36,0.94,-11.46,3.05,0.06,16.5,39.16,22.51,0.0,0.0,0.0,0.0,0.0,0.0,0.0,0.0,0.0,0.0,0.0,0.0,0.0,0.0,0.0,0.0,0.0,0.0,0.0,0.0,0.0
,,124042.563851,5.82304048538208,0.0,0.0,0.0,0.0,0.0,0.0,0.0,0.0,0.0,0.0,0.0,63585.0,0.08,0.35,0.94,-13.48,4.88,3.05,16.5,39.16,22.51,63625.0,0.05,0.39,0.94,-16.16,3.6,6.22,18.45,39.61,25.06,0.0,0.0,0.0,0.0,0.0,0.0,0.0,0.0,0.0,0.0,0.0,0.0,0.0,0.0,0.0,0.0,0.0,0.0,0.0,0.0,0.0
,,124042.58209,5.8412766456604,0.0,0.0,0.0,0.0,0.0,0.0,0.0,0.0,0.0,0.0,0.0,63634.0,0.05,0.42,0.95,-17.38,3.29,7.38,18.45,40.36,24.31,63644.0,0.04,0.41,0.99,-20.3,3.9,5.91,17.1,40.36,23.26,0.0,0.0,0.0,0.0,0.0,0.0,0.0,0.0,0.0,0.0,0.0,0.0,0.0,0.0,0.0,0.0,0.0,0.0,0.0,0.0,0.0
,,124042.600694,5.859881639480591,0.0,0.0,0.0,0.0,0.0,0.0,0.0,0.0,0.0,0.0,0.0,63653.0,0.07,0.41,0.98,-17.68,1.65,2.68,17.1,39.61,23.71,63662.0,0.06,0.39,0.96,-15.43,-0.79,1.22,15.45,39.91,22.81,0.0,0.0,0.0,0.0,0.0,0.0,0.0,0.0,0.0,0.0,0.0,0.0,0.0,0.0,0.0,0.0,0.0,0.0,0.0,0.0,0.0
,,124042.619195,5.8783955574035645,0.0,0.0,0.0,0.0,0.0,0.0,0.0,0.0,0.0,0.0,0.0,63671.0,0.05,0.38,0.95,-13.17,-2.44,1.1,17.4,39.01,22.66,63681.0,0.06,0.35,0.93,-9.57,0.37,2.93,15.75,39.31,22.36,0.0,0.0,0.0,0.0,0.0,0.0,0.0,0.0,0.0,0.0,0.0,0.0,0.0,0.0,0.0,0.0,0.0,0.0,0.0,0.0,0.0
,,124042.637492,5.896670341491699,0.0,0.0,0.0,0.0,0.0,0.0,0.0,0.0,0.0,0.0,0.0,63690.0,0.06,0.33,0.94,-10.98,4.7,5.73,16.8,40.06,22.96,63699.0,0.05,0.37,0.93,-17.93,4.51,6.1,18.0,39.46,23.41,0.0,0.0,0.0,0.0,0.0,0.0,0.0,0.0,0.0,0.0,0.0,0.0,0.0,0.0,0.0,0.0,0.0,0.0,0.0,0.0,0.0
,,124042.656221,5.915409088134766,0.0,0.0,0.0,0.0,0.0,0.0,0.0,0.0,0.0,0.0,0.0,63708.0,0.04,0.36,0.93,-27.8,3.17,2.62,17.4,39.61,22.96,63718.0,0.02,0.35,0.89,-32.44,1.22,-4.09,18.0,40.21,24.46,0.0,0.0,0.0,0.0,0.0,0.0,0.0,0.0,0.0,0.0,0.0,0.0,0.0,0.0,0.0,0.0,0.0,0.0,0.0,0.0,0.0
,,124042.674541,5.933716297149658,0.0,0.0,0.0,0.0,0.0,0.0,0.0,0.0,0.0,0.0,0.0,63727.0,0.02,0.38,0.92,-34.02,3.6,-9.39,18.0,39.46,23.41,63736.0,0.02,0.46,0.95,-26.4,6.4,-10.85,17.25,40.21,23.11,0.0,0.0,0.0,0.0,0.0,0.0,0.0,0.0,0.0,0.0,0.0,0.0,0.0,0.0,0.0,0.0,0.0,0.0,0.0,0.0,0.0
,,124042.693289,5.95248818397522,0.0,0.0,0.0,0.0,0.0,0.0,0.0,0.0,0.0,0.0,0.0,63745.0,0.04,0.41,1.0,-13.17,2.74,-3.05,16.5,40.96,22.51,63755.0,0.06,0.36,0.94,-22.56,-2.07,1.4,16.5,40.96,22.51,0.0,0.0,0.0,0.0,0.0,0.0,0.0,0.0,0.0,0.0,0.0,0.0,0.0,0.0,0.0,0.0,0.0,0.0,0.0,0.0,0.0
,,124042.74353,6.002719402313232,0.0,0.0,0.0,0.0,0.0,0.0,0.0,0.0,0.0,0.0,0.0,63795.0,0.06,0.35,0.94,-21.04,-2.8,3.78,19.65,38.71,23.11,63805.0,0.1,0.27,0.95,-20.06,-1.34,4.02,19.65,38.71,23.11,0.0,0.0,0.0,0.0,0.0,0.0,0.0,0.0,0.0,0.0,0.0,0.0,0.0,0.0,0.0,0.0,0.0,0.0,0.0,0.0,0.0
,,124042.762059,6.021248817443848,0.0,0.0,0.0,0.0,0.0,0.0,0.0,0.0,0.0,0.0,0.0,63814.0,0.06,0.37,0.98,-22.8,-1.16,1.95,18.45,40.66,22.96,63823.0,0.06,0.4,0.97,-22.13,-5.0,4.45,19.95,39.31,23.26,0.0,0.0,0.0,0.0,0.0,0.0,0.0,0.0,0.0,0.0,0.0,0.0,0.0,0.0,0.0,0.0,0.0,0.0,0.0,0.0,0.0
,,124042.780373,6.039579153060913,0.0,0.0,0.0,0.0,0.0,0.0,0.0,0.0,0.0,0.0,0.0,63832.0,0.07,0.34,0.94,-17.07,-1.65,7.8,19.65,39.16,23.41,63842.0,0.08,0.35,0.97,-17.93,2.68,8.66,19.95,40.66,23.26,0.0,0.0,0.0,0.0,0.0,0.0,0.0,0.0,0.0,0.0,0.0,0.0,0.0,0.0,0.0,0.0,0.0,0.0,0.0,0.0,0.0
,,124042.798818,6.058001279830933,0.0,0.0,0.0,0.0,0.0,0.0,0.0,0.0,0.0,0.0,0.0,63851.0,0.07,0.34,0.97,-19.39,6.28,9.76,19.2,40.66,22.96,63860.0,0.09,0.32,0.99,-25.0,7.99,12.38,19.95,39.61,24.31,0.0,0.0,0.0,0.0,0.0,0.0,0.0,0.0,0.0,0.0,0.0,0.0,0.0,0.0,0.0,0.0,0.0,0.0,0.0,0.0,0.0
,,124042.817518,6.076701641082764,0.0,0.0,0.0,0.0,0.0,0.0,0.0,0.0,0.0,0.0,0.0,63869.0,0.07,0.34,0.94,-28.54,10.73,14.33,20.11,40.51,24.16,63879.0,0.04,0.32,0.97,-24.33,11.59,13.17,20.41,40.21,23.11,0.0,0.0,0.0,0.0,0.0,0.0,0.0,0.0,0.0,0.0,0.0,0.0,0.0,0.0,0.0,0.0,0.0,0.0,0.0,0.0,0.0
,,124042.836675,6.095872640609741,0.0,0.0,0.0,0.0,0.0,0.0,0.0,0.0,0.0,0.0,0.0,63888.0,0.04,0.32,0.99,-22.62,10.85,10.85,21.31,39.61,22.66,63898.0,0.11,0.32,1.03,-18.41,4.82,5.55,21.61,39.31,24.31,0.0,0.0,0.0,0.0,0.0,0.0,0.0,0.0,0.0,0.0,0.0,0.0,0.0,0.0,0.0,0.0,0.0,0.0,0.0,0.0,0.0
,,124042.854123,6.113299131393433,0.0,0.0,0.0,0.0,0.0,0.0,0.0,0.0,0.0,0.0,0.0,63907.0,0.0,0.37,0.96,-9.88,-1.59,-1.95,21.76,40.96,22.51,63916.0,0.02,0.36,0.91,-10.91,0.0,2.13,21.46,39.46,21.46,0.0,0.0,0.0,0.0,0.0,0.0,0.0,0.0,0.0,0.0,0.0,0.0,0.0,0.0,0.0,0.0,0.0,0.0,0.0,0.0,0.0
,,124042.904167,6.16335654258728,0.0,0.0,0.0,0.0,0.0,0.0,0.0,0.0,0.0,0.0,0.0,63925.0,0.04,0.34,0.97,-17.74,0.0,4.33,22.96,40.21,21.46,63965.0,0.04,0.32,0.98,-14.51,-4.02,2.01,24.61,38.71,22.81,0.0,0.0,0.0,0.0,0.0,0.0,0.0,0.0,0.0,0.0,0.0,0.0,0.0,0.0,0.0,0.0,0.0,0.0,0.0,0.0,0.0
,,124042.922376,6.181583881378174,0.0,0.0,0.0,0.0,0.0,0.0,0.0,0.0,0.0,0.0,0.0,63974.0,0.05,0.27,0.97,-12.68,-6.28,2.32,24.61,38.71,22.81,63984.0,0.06,0.24,0.99,-13.11,-4.21,3.96,24.16,40.06,24.01,0.0,0.0,0.0,0.0,0.0,0.0,0.0,0.0,0.0,0.0,0.0,0.0,0.0,0.0,0.0,0.0,0.0,0.0,0.0,0.0,0.0
,,124042.940673,6.199857711791992,0.0,0.0,0.0,0.0,0.0,0.0,0.0,0.0,0.0,0.0,0.0,63993.0,0.06,0.23,1.0,-8.96,-3.05,6.95,24.61,40.21,23.41,64002.0,0.07,0.25,0.99,-8.48,-2.2,10.73,23.11,39.31,22.96,0.0,0.0,0.0,0.0,0.0,0.0,0.0,0.0,0.0,0.0,0.0,0.0,0.0,0.0,0.0,0.0,0.0,0.0,0.0,0.0,0.0
,,124042.959546,6.218750715255737,0.0,0.0,0.0,0.0,0.0,0.0,0.0,0.0,0.0,0.0,0.0,64011.0,0.05,0.3,1.02,-9.57,-1.95,13.9,24.46,39.31,22.36,64021.0,0.14,0.2,1.03,-13.6,-2.62,12.5,25.36,39.46,21.76,0.0,0.0,0.0,0.0,0.0,0.0,0.0,0.0,0.0,0.0,0.0,0.0,0.0,0.0,0.0,0.0,0.0,0.0,0.0,0.0,0.0
,,124042.977987,6.237168073654175,0.0,0.0,0.0,0.0,0.0,0.0,0.0,0.0,0.0,0.0,0.0,64030.0,0.02,0.41,1.02,-27.87,-6.4,-3.35,26.11,39.46,23.11,64039.0,0.05,0.44,0.93,-14.02,-15.61,-2.07,25.06,39.91,21.16,0.0,0.0,0.0,0.0,0.0,0.0,0.0,0.0,0.0,0.0,0.0,0.0,0.0,0.0,0.0,0.0,0.0,0.0,0.0,0.0,0.0
,,124042.996416,6.2556092739105225,0.0,0.0,0.0,0.0,0.0,0.0,0.0,0.0,0.0,0.0,0.0,64049.0,-0.0,0.37,0.93,-20.98,-10.67,-3.29,26.41,38.41,22.81,64058.0,0.03,0.28,0.96,-27.26,-2.74,-3.84,26.56,40.06,22.36,0.0,0.0,0.0,0.0,0.0,0.0,0.0,0.0,0.0,0.0,0.0,0.0,0.0,0.0,0.0,0.0,0.0,0.0,0.0,0.0,0.0
,,124043.014936,6.274118185043335,0.0,0.0,0.0,0.0,0.0,0.0,0.0,0.0,0.0,0.0,0.0,64067.0,0.07,0.24,0.98,-31.52,3.17,-4.76,28.36,39.01,22.36,64076.0,0.09,0.2,0.99,-32.68,5.3,-1.59,27.76,39.16,21.16,0.0,0.0,0.0,0.0,0.0,0.0,0.0,0.0,0.0,0.0,0.0,0.0,0.0,0.0,0.0,0.0,0.0,0.0,0.0,0.0,0.0
,,124043.033381,6.292570114135742,0.0,0.0,0.0,0.0,0.0,0.0,0.0,0.0,0.0,0.0,0.0,64086.0,0.09,0.18,1.0,-36.83,6.4,3.29,28.36,40.66,21.91,64095.0,0.08,0.25,1.03,-41.52,6.46,6.22,28.36,40.66,21.91,0.0,0.0,0.0,0.0,0.0,0.0,0.0,0.0,0.0,0.0,0.0,0.0,0.0,0.0,0.0,0.0,0.0,0.0,0.0,0.0,0.0
,,124043.084146,6.34333610534668,0.0,0.0,0.0,0.0,0.0,0.0,0.0,0.0,0.0,0.0,0.0,64136.0,0.06,0.3,1.02,-48.78,3.78,9.02,31.06,39.61,23.26,64145.0,0.06,0.28,1.01,-58.9,2.01,11.65,29.41,40.06,21.91,0.0,0.0,0.0,0.0,0.0,0.0,0.0,0.0,0.0,0.0,0.0,0.0,0.0,0.0,0.0,0.0,0.0,0.0,0.0,0.0,0.0
,,124043.102648,6.361829519271851,0.0,0.0,0.0,0.0,0.0,0.0,0.0,0.0,0.0,0.0,0.0,64155.0,0.04,0.29,1.03,-71.34,-0.06,10.24,29.41,40.06,21.91,64164.0,0.03,0.29,1.02,-68.41,-3.84,6.52,29.86,39.91,21.46,0.0,0.0,0.0,0.0,0.0,0.0,0.0,0.0,0.0,0.0,0.0,0.0,0.0,0.0,0.0,0.0,0.0,0.0,0.0,0.0,0.0
,,124043.121269,6.380465984344482,0.0,0.0,0.0,0.0,0.0,0.0,0.0,0.0,0.0,0.0,0.0,64173.0,0.05,0.25,1.0,-58.23,-4.51,2.68,30.01,39.31,20.86,64182.0,0.06,0.18,0.99,-47.2,-1.95,0.98,32.41,40.21,21.16,0.0,0.0,0.0,0.0,0.0,0.0,0.0,0.0,0.0,0.0,0.0,0.0,0.0,0.0,0.0,0.0,0.0,0.0,0.0,0.0,0.0
,,124043.139477,6.398661375045776,0.0,0.0,0.0,0.0,0.0,0.0,0.0,0.0,0.0,0.0,0.0,64192.0,0.08,0.12,0.98,-40.06,0.43,-1.89,31.66,39.46,19.8,64201.0,0.09,0.13,0.97,-35.55,3.11,-0.98,31.36,39.91,19.35,0.0,0.0,0.0,0.0,0.0,0.0,0.0,0.0,0.0,0.0,0.0,0.0,0.0,0.0,0.0,0.0,0.0,0.0,0.0,0.0,0.0
,,124043.158061,6.417246341705322,0.0,0.0,0.0,0.0,0.0,0.0,0.0,0.0,0.0,0.0,0.0,64210.0,0.09,0.12,0.98,-35.61,3.72,4.33,31.06,39.01,22.36,64219.0,0.06,0.08,0.98,-40.37,1.1,6.4,32.11,39.01,20.26,0.0,0.0,0.0,0.0,0.0,0.0,0.0,0.0,0.0,0.0,0.0,0.0,0.0,0.0,0.0,0.0,0.0,0.0,0.0,0.0,0.0
,,124043.17634,6.435532569885254,0.0,0.0,0.0,0.0,0.0,0.0,0.0,0.0,0.0,0.0,0.0,64228.0,0.14,0.1,0.99,-58.78,-3.48,2.93,33.01,40.21,20.11,64238.0,0.03,0.2,1.04,-66.95,-3.23,3.96,32.56,39.61,20.56,0.0,0.0,0.0,0.0,0.0,0.0,0.0,0.0,0.0,0.0,0.0,0.0,0.0,0.0,0.0,0.0,0.0,0.0,0.0,0.0,0.0
,,124043.194977,6.454158544540405,0.0,0.0,0.0,0.0,0.0,0.0,0.0,0.0,0.0,0.0,0.0,64247.0,0.02,0.17,1.09,-58.96,-3.17,13.29,32.71,40.96,20.71,64256.0,0.05,0.17,1.03,-55.85,1.59,13.66,31.81,40.06,20.86,0.0,0.0,0.0,0.0,0.0,0.0,0.0,0.0,0.0,0.0,0.0,0.0,0.0,0.0,0.0,0.0,0.0,0.0,0.0,0.0,0.0
,,124043.245708,6.5049052238464355,0.0,0.0,0.0,0.0,0.0,0.0,0.0,0.0,0.0,0.0,0.0,64266.0,0.05,0.14,1.01,-49.94,6.22,12.62,31.36,40.51,19.8,64307.0,0.05,0.11,1.02,-42.62,5.61,10.3,34.96,38.56,21.31,0.0,0.0,0.0,0.0,0.0,0.0,0.0,0.0,0.0,0.0,0.0,0.0,0.0,0.0,0.0,0.0,0.0,0.0,0.0,0.0,0.0
,,124043.263953,6.523141622543335,0.0,0.0,0.0,0.0,0.0,0.0,0.0,0.0,0.0,0.0,0.0,64316.0,0.05,0.1,1.02,-36.65,3.48,6.77,33.01,39.91,19.35,64325.0,0.05,0.09,1.0,-34.39,3.11,6.22,33.01,37.66,19.35,0.0,0.0,0.0,0.0,0.0,0.0,0.0,0.0,0.0,0.0,0.0,0.0,0.0,0.0,0.0,0.0,0.0,0.0,0.0,0.0,0.0
,,124043.282622,6.541820526123047,0.0,0.0,0.0,0.0,0.0,0.0,0.0,0.0,0.0,0.0,0.0,64334.0,0.06,0.07,1.01,-34.88,2.93,6.22,33.01,37.66,19.35,64344.0,0.07,0.04,1.0,-38.66,2.44,8.17,34.06,39.46,20.41,0.0,0.0,0.0,0.0,0.0,0.0,0.0,0.0,0.0,0.0,0.0,0.0,0.0,0.0,0.0,0.0,0.0,0.0,0.0,0.0,0.0
,,124043.300821,6.560012340545654,0.0,0.0,0.0,0.0,0.0,0.0,0.0,0.0,0.0,0.0,0.0,64353.0,0.2,-0.25,0.88,-47.74,3.29,9.15,34.21,38.26,20.56,64362.0,0.04,0.1,1.41,-104.82,-5.67,-5.73,33.16,39.01,17.85,0.0,0.0,0.0,0.0,0.0,0.0,0.0,0.0,0.0,0.0,0.0,0.0,0.0,0.0,0.0,0.0,0.0,0.0,0.0,0.0,0.0
,,124043.319604,6.5787835121154785,0.0,0.0,0.0,0.0,0.0,0.0,0.0,0.0,0.0,0.0,0.0,64371.0,-0.01,0.12,0.95,-70.79,-16.16,10.91,33.61,39.01,19.95,64381.0,0.04,0.02,1.0,-53.54,-2.01,17.26,34.51,40.21,18.45,0.0,0.0,0.0,0.0,0.0,0.0,0.0,0.0,0.0,0.0,0.0,0.0,0.0,0.0,0.0,0.0,0.0,0.0,0.0,0.0,0.0
,,124043.338124,6.597310781478882,0.0,0.0,0.0,0.0,0.0,0.0,0.0,0.0,0.0,0.0,0.0,64390.0,0.08,0.01,1.0,-56.77,4.33,15.12,34.51,38.11,18.0,64399.0,-0.04,0.16,1.02,-67.07,-5.91,3.11,31.66,38.71,19.35,0.0,0.0,0.0,0.0,0.0,0.0,0.0,0.0,0.0,0.0,0.0,0.0,0.0,0.0,0.0,0.0,0.0,0.0,0.0,0.0,0.0
,,124043.356883,6.6160688400268555,0.0,0.0,0.0,0.0,0.0,0.0,0.0,0.0,0.0,0.0,0.0,64409.0,-0.08,-0.07,1.0,-47.38,-10.55,5.49,33.61,37.96,20.26,64418.0,0.08,0.08,1.0,-61.65,-13.35,-13.54,33.76,39.46,19.35,0.0,0.0,0.0,0.0,0.0,0.0,0.0,0.0,0.0,0.0,0.0,0.0,0.0,0.0,0.0,0.0,0.0,0.0,0.0,0.0,0.0
,,124043.375377,6.634562969207764,0.0,0.0,0.0,0.0,0.0,0.0,0.0,0.0,0.0,0.0,0.0,64427.0,0.05,0.03,0.92,-36.4,-11.52,-6.95,33.91,38.56,18.9,64437.0,0.05,0.01,0.98,-24.27,-5.49,-6.83,33.76,38.41,18.0,0.0,0.0,0.0,0.0,0.0,0.0,0.0,0.0,0.0,0.0,0.0,0.0,0.0,0.0,0.0,0.0,0.0,0.0,0.0,0.0,0.0
,,124043.48944,6.748637437820435,0.0,0.0,0.0,0.0,0.0,0.0,0.0,0.0,0.0,0.0,0.0,64478.0,-1.95,-1.72,0.88,-1706.89,1497.68,436.71,35.56,39.16,21.46,64550.0,0.12,-0.13,0.99,-33.11,-10.37,2.68,33.61,38.56,18.6,0.0,0.0,0.0,0.0,0.0,0.0,0.0,0.0,0.0,0.0,0.0,0.0,0.0,0.0,0.0,0.0,0.0,0.0,0.0,0.0,0.0
,,124043.509616,6.768803119659424,0.0,0.0,0.0,0.0,0.0,0.0,0.0,0.0,0.0,0.0,0.0,64560.0,0.12,-0.16,0.98,-25.12,-7.5,3.23,35.11,38.11,17.7,64571.0,0.13,-0.21,0.96,-20.67,-5.49,1.89,34.66,36.91,18.15,0.0,0.0,0.0,0.0,0.0,0.0,0.0,0.0,0.0,0.0,0.0,0.0,0.0,0.0,0.0,0.0,0.0,0.0,0.0,0.0,0.0
,,124043.529647,6.7888343334198,0.0,0.0,0.0,0.0,0.0,0.0,0.0,0.0,0.0,0.0,0.0,64580.0,0.14,-0.2,0.99,-20.91,-4.21,1.28,36.76,37.96,17.55,64591.0,0.15,-0.22,0.98,-20.49,-4.33,4.02,34.51,38.41,17.7,0.0,0.0,0.0,0.0,0.0,0.0,0.0,0.0,0.0,0.0,0.0,0.0,0.0,0.0,0.0,0.0,0.0,0.0,0.0,0.0,0.0
,,124043.549881,6.809071063995361,0.0,0.0,0.0,0.0,0.0,0.0,0.0,0.0,0.0,0.0,0.0,64600.0,0.14,-0.21,0.98,-21.1,-5.06,4.63,35.11,38.71,16.35,64611.0,0.14,-0.21,0.98,-22.5,-3.29,5.18,36.16,37.66,17.7,0.0,0.0,0.0,0.0,0.0,0.0,0.0,0.0,0.0,0.0,0.0,0.0,0.0,0.0,0.0,0.0,0.0,0.0,0.0,0.0,0.0
,,124043.569041,6.8282177448272705,0.0,0.0,0.0,0.0,0.0,0.0,0.0,0.0,0.0,0.0,0.0,64620.0,0.14,-0.21,1.01,-27.07,-1.77,6.28,37.66,39.91,17.4,64630.0,0.13,-0.2,0.99,-30.55,-2.26,7.13,37.06,37.21,18.15,0.0,0.0,0.0,0.0,0.0,0.0,0.0,0.0,0.0,0.0,0.0,0.0,0.0,0.0,0.0,0.0,0.0,0.0,0.0,0.0,0.0
,,124043.589151,6.848355531692505,0.0,0.0,0.0,0.0,0.0,0.0,0.0,0.0,0.0,0.0,0.0,64641.0,0.13,-0.19,0.99,-33.84,-2.56,7.62,36.01,39.01,17.25,64650.0,0.14,-0.2,0.99,-33.84,-2.8,7.26,36.91,38.11,16.65,0.0,0.0,0.0,0.0,0.0,0.0,0.0,0.0,0.0,0.0,0.0,0.0,0.0,0.0,0.0,0.0,0.0,0.0,0.0,0.0,0.0
,,124043.609466,6.868650436401367,0.0,0.0,0.0,0.0,0.0,0.0,0.0,0.0,0.0,0.0,0.0,64661.0,0.15,-0.22,0.97,-32.99,-3.29,8.48,37.36,37.21,16.5,64670.0,0.13,-0.22,0.99,-37.74,-4.7,10.0,37.66,37.36,16.35,0.0,0.0,0.0,0.0,0.0,0.0,0.0,0.0,0.0,0.0,0.0,0.0,0.0,0.0,0.0,0.0,0.0,0.0,0.0,0.0,0.0
,,124043.656811,6.9160003662109375,0.0,0.0,0.0,0.0,0.0,0.0,0.0,0.0,0.0,0.0,0.0,64709.0,0.15,-0.22,0.99,-39.94,-6.59,10.55,39.31,38.11,15.6,64718.0,0.12,-0.22,0.97,-39.88,-7.07,9.21,37.81,37.96,18.6,0.0,0.0,0.0,0.0,0.0,0.0,0.0,0.0,0.0,0.0,0.0,0.0,0.0,0.0,0.0,0.0,0.0,0.0,0.0,0.0,0.0
,,124043.674579,6.9337687492370605,0.0,0.0,0.0,0.0,0.0,0.0,0.0,0.0,0.0,0.0,0.0,64727.0,0.13,-0.24,0.97,-37.74,-6.83,7.8,38.86,38.26,15.45,64735.0,0.13,-0.26,0.97,-39.76,-7.13,6.34,37.36,37.21,14.55,0.0,0.0,0.0,0.0,0.0,0.0,0.0,0.0,0.0,0.0,0.0,0.0,0.0,0.0,0.0,0.0,0.0,0.0,0.0,0.0,0.0
,,124043.692125,6.95130467414856,0.0,0.0,0.0,0.0,0.0,0.0,0.0,0.0,0.0,0.0,0.0,64744.0,0.12,-0.26,0.96,-45.79,-7.26,5.3,37.36,37.21,14.55,64753.0,0.13,-0.27,0.96,-50.49,-8.23,4.39,39.91,37.96,14.85,0.0,0.0,0.0,0.0,0.0,0.0,0.0,0.0,0.0,0.0,0.0,0.0,0.0,0.0,0.0,0.0,0.0,0.0,0.0,0.0,0.0
,,124043.709936,6.96913743019104,0.0,0.0,0.0,0.0,0.0,0.0,0.0,0.0,0.0,0.0,0.0,64762.0,0.13,-0.28,0.98,-51.65,-8.48,1.04,39.46,37.96,14.85,64771.0,0.12,-0.28,0.97,-52.07,-7.01,-1.28,39.31,38.11,15.0,0.0,0.0,0.0,0.0,0.0,0.0,0.0,0.0,0.0,0.0,0.0,0.0,0.0,0.0,0.0,0.0,0.0,0.0,0.0,0.0,0.0
,,124043.727735,6.986919164657593,0.0,0.0,0.0,0.0,0.0,0.0,0.0,0.0,0.0,0.0,0.0,64780.0,0.13,-0.28,0.98,-48.23,-5.61,-2.93,39.46,36.91,14.55,64789.0,0.15,-0.32,0.97,-40.98,-5.3,-3.6,38.71,37.06,14.7,0.0,0.0,0.0,0.0,0.0,0.0,0.0,0.0,0.0,0.0,0.0,0.0,0.0,0.0,0.0,0.0,0.0,0.0,0.0,0.0,0.0
,,124043.745443,7.004626750946045,0.0,0.0,0.0,0.0,0.0,0.0,0.0,0.0,0.0,0.0,0.0,64798.0,0.18,-0.35,0.99,-40.24,-5.43,-2.93,40.36,38.71,13.65,64806.0,0.15,-0.35,0.96,-42.07,-5.61,0.43,41.11,37.06,13.95,0.0,0.0,0.0,0.0,0.0,0.0,0.0,0.0,0.0,0.0,0.0,0.0,0.0,0.0,0.0,0.0,0.0,0.0,0.0,0.0,0.0
,,124043.763595,7.02277946472168,0.0,0.0,0.0,0.0,0.0,0.0,0.0,0.0,0.0,0.0,0.0,64815.0,0.15,-0.36,0.95,-45.85,-5.24,3.35,41.11,37.06,12.0,64824.0,0.16,-0.38,0.96,-54.09,-6.04,3.96,41.11,37.06,12.0,0.0,0.0,0.0,0.0,0.0,0.0,0.0,0.0,0.0,0.0,0.0,0.0,0.0,0.0,0.0,0.0,0.0,0.0,0.0,0.0,0.0
,,124043.811152,7.07033371925354,0.0,0.0,0.0,0.0,0.0,0.0,0.0,0.0,0.0,0.0,0.0,64863.0,0.19,-0.53,0.98,-67.8,-8.48,6.04,44.26,37.06,13.95,64872.0,0.19,-0.43,0.98,-90.85,-8.05,11.83,44.26,38.11,12.3,0.0,0.0,0.0,0.0,0.0,0.0,0.0,0.0,0.0,0.0,0.0,0.0,0.0,0.0,0.0,0.0,0.0,0.0,0.0,0.0,0.0
,,124043.829247,7.088435888290405,0.0,0.0,0.0,0.0,0.0,0.0,0.0,0.0,0.0,0.0,0.0,64881.0,0.16,-0.39,1.01,-99.33,-10.61,12.62,43.66,37.51,9.45,64890.0,0.11,-0.36,0.99,-103.54,-13.41,13.48,45.01,37.36,10.65,0.0,0.0,0.0,0.0,0.0,0.0,0.0,0.0,0.0,0.0,0.0,0.0,0.0,0.0,0.0,0.0,0.0,0.0,0.0,0.0,0.0
,,124043.847156,7.106339693069458,0.0,0.0,0.0,0.0,0.0,0.0,0.0,0.0,0.0,0.0,0.0,64899.0,0.11,-0.35,0.95,-97.44,-11.77,12.13,45.01,36.61,10.65,64908.0,0.1,-0.36,0.96,-85.73,-7.74,10.06,45.31,38.11,10.65,0.0,0.0,0.0,0.0,0.0,0.0,0.0,0.0,0.0,0.0,0.0,0.0,0.0,0.0,0.0,0.0,0.0,0.0,0.0,0.0,0.0
,,124043.86473,7.123932123184204,0.0,0.0,0.0,0.0,0.0,0.0,0.0,0.0,0.0,0.0,0.0,64917.0,0.12,-0.39,0.93,-77.56,-4.76,8.84,45.61,36.31,9.9,64926.0,0.13,-0.42,0.9,-69.94,-2.38,9.15,44.86,36.46,8.7,0.0,0.0,0.0,0.0,0.0,0.0,0.0,0.0,0.0,0.0,0.0,0.0,0.0,0.0,0.0,0.0,0.0,0.0,0.0,0.0,0.0
,,124043.882449,7.141651630401611,0.0,0.0,0.0,0.0,0.0,0.0,0.0,0.0,0.0,0.0,0.0,64935.0,0.15,-0.44,0.87,-60.98,0.0,9.57,44.86,37.51,9.75,64943.0,0.13,-0.44,0.85,-53.23,-0.85,8.72,44.86,37.51,9.75,0.0,0.0,0.0,0.0,0.0,0.0,0.0,0.0,0.0,0.0,0.0,0.0,0.0,0.0,0.0,0.0,0.0,0.0,0.0,0.0,0.0
,,124043.900175,7.159383773803711,0.0,0.0,0.0,0.0,0.0,0.0,0.0,0.0,0.0,0.0,0.0,64952.0,0.15,-0.45,0.85,-48.72,-3.29,6.4,45.01,37.36,7.95,64961.0,0.13,-0.48,0.87,-46.83,-6.16,3.17,46.51,37.96,9.75,0.0,0.0,0.0,0.0,0.0,0.0,0.0,0.0,0.0,0.0,0.0,0.0,0.0,0.0,0.0,0.0,0.0,0.0,0.0,0.0,0.0
,,124043.918632,7.177820205688477,0.0,0.0,0.0,0.0,0.0,0.0,0.0,0.0,0.0,0.0,0.0,64970.0,0.13,-0.51,0.85,-42.62,-6.89,0.79,45.46,36.91,9.0,64978.0,0.15,-0.52,0.84,-43.96,-5.98,-1.65,46.36,37.36,6.9,0.0,0.0,0.0,0.0,0.0,0.0,0.0,0.0,0.0,0.0,0.0,0.0,0.0,0.0,0.0,0.0,0.0,0.0,0.0,0.0,0.0
,,124043.965279,7.2244791984558105,0.0,0.0,0.0,0.0,0.0,0.0,0.0,0.0,0.0,0.0,0.0,64987.0,0.17,-0.47,0.89,-51.65,-22.13,-13.54,46.96,37.21,7.05,65026.0,0.13,-0.47,0.82,-48.35,-30.06,-18.78,47.71,38.11,7.2,0.0,0.0,0.0,0.0,0.0,0.0,0.0,0.0,0.0,0.0,0.0,0.0,0.0,0.0,0.0,0.0,0.0,0.0,0.0,0.0,0.0
,,124043.983613,7.242801666259766,0.0,0.0,0.0,0.0,0.0,0.0,0.0,0.0,0.0,0.0,0.0,65035.0,0.15,-0.44,0.92,-61.28,-31.71,-23.78,47.26,35.86,6.0,65044.0,0.16,-0.46,0.85,-70.73,-38.96,-25.3,47.26,35.86,6.0,0.0,0.0,0.0,0.0,0.0,0.0,0.0,0.0,0.0,0.0,0.0,0.0,0.0,0.0,0.0,0.0,0.0,0.0,0.0,0.0,0.0
,,124044.001116,7.260319471359253,0.0,0.0,0.0,0.0,0.0,0.0,0.0,0.0,0.0,0.0,0.0,65053.0,0.12,-0.42,0.76,-71.22,-41.95,-27.68,47.56,35.11,4.35,65062.0,0.17,-0.51,0.76,-51.83,-35.98,-29.15,46.66,34.96,3.15,0.0,0.0,0.0,0.0,0.0,0.0,0.0,0.0,0.0,0.0,0.0,0.0,0.0,0.0,0.0,0.0,0.0,0.0,0.0,0.0,0.0
,,124044.019597,7.278801918029785,0.0,0.0,0.0,0.0,0.0,0.0,0.0,0.0,0.0,0.0,0.0,65071.0,0.17,-0.51,0.71,-46.46,-33.66,-31.71,47.41,33.16,3.45,65080.0,0.17,-0.7,0.82,-49.7,-31.46,-27.68,47.11,32.86,4.2,0.0,0.0,0.0,0.0,0.0,0.0,0.0,0.0,0.0,0.0,0.0,0.0,0.0,0.0,0.0,0.0,0.0,0.0,0.0,0.0,0.0
,,124044.037474,7.29665470123291,0.0,0.0,0.0,0.0,0.0,0.0,0.0,0.0,0.0,0.0,0.0,65089.0,0.2,-0.72,0.87,-66.28,-42.2,-47.93,47.11,32.86,4.2,65098.0,0.28,-0.57,0.8,-72.68,-50.06,-60.61,48.46,34.96,2.4,0.0,0.0,0.0,0.0,0.0,0.0,0.0,0.0,0.0,0.0,0.0,0.0,0.0,0.0,0.0,0.0,0.0,0.0,0.0,0.0,0.0
,,124044.054767,7.313951015472412,0.0,0.0,0.0,0.0,0.0,0.0,0.0,0.0,0.0,0.0,0.0,65107.0,0.24,-0.59,0.83,-64.94,-41.1,-53.72,47.11,33.91,3.45,65116.0,0.27,-0.46,0.78,-53.84,-37.44,-53.29,47.71,32.41,1.8,0.0,0.0,0.0,0.0,0.0,0.0,0.0,0.0,0.0,0.0,0.0,0.0,0.0,0.0,0.0,0.0,0.0,0.0,0.0,0.0,0.0
,,124044.072561,7.331736326217651,0.0,0.0,0.0,0.0,0.0,0.0,0.0,0.0,0.0,0.0,0.0,65125.0,0.26,-0.49,0.78,-44.88,-24.94,-35.73,48.31,33.01,1.65,65134.0,0.29,-0.61,0.8,-42.07,-16.22,-22.8,48.31,33.01,1.65,0.0,0.0,0.0,0.0,0.0,0.0,0.0,0.0,0.0,0.0,0.0,0.0,0.0,0.0,0.0,0.0,0.0,0.0,0.0,0.0,0.0
,,124044.120619,7.37981390953064,0.0,0.0,0.0,0.0,0.0,0.0,0.0,0.0,0.0,0.0,0.0,65143.0,0.32,-0.58,0.77,-41.22,-0.37,-15.61,48.31,32.56,1.65,65182.0,0.3,-0.66,0.84,-45.43,7.99,0.0,51.76,32.26,0.6,0.0,0.0,0.0,0.0,0.0,0.0,0.0,0.0,0.0,0.0,0.0,0.0,0.0,0.0,0.0,0.0,0.0,0.0,0.0,0.0,0.0
,,124044.138472,7.39765739440918,0.0,0.0,0.0,0.0,0.0,0.0,0.0,0.0,0.0,0.0,0.0,65190.0,0.24,-0.62,0.77,-64.88,-3.48,-0.49,50.71,31.51,-1.05,65199.0,0.25,-0.58,0.74,-80.85,-10.73,-3.66,48.76,32.41,-1.95,0.0,0.0,0.0,0.0,0.0,0.0,0.0,0.0,0.0,0.0,0.0,0.0,0.0,0.0,0.0,0.0,0.0,0.0,0.0,0.0,0.0
,,124044.156075,7.415260314941406,0.0,0.0,0.0,0.0,0.0,0.0,0.0,0.0,0.0,0.0,0.0,65208.0,0.25,-0.64,0.76,-83.23,-12.38,-4.33,49.51,31.06,-1.65,65217.0,0.29,-0.64,0.75,-86.16,-13.66,-8.05,48.01,32.26,-2.1,0.0,0.0,0.0,0.0,0.0,0.0,0.0,0.0,0.0,0.0,0.0,0.0,0.0,0.0,0.0,0.0,0.0,0.0,0.0,0.0,0.0
,,124044.174178,7.4333648681640625,0.0,0.0,0.0,0.0,0.0,0.0,0.0,0.0,0.0,0.0,0.0,65226.0,0.27,-0.59,0.74,-84.09,-13.66,-8.11,49.51,32.11,-1.2,65235.0,0.3,-0.58,0.86,-77.13,-14.09,-9.63,47.71,32.11,-1.2,0.0,0.0,0.0,0.0,0.0,0.0,0.0,0.0,0.0,0.0,0.0,0.0,0.0,0.0,0.0,0.0,0.0,0.0,0.0,0.0,0.0
,,124044.191933,7.451135158538818,0.0,0.0,0.0,0.0,0.0,0.0,0.0,0.0,0.0,0.0,0.0,65244.0,0.25,-0.59,0.69,-68.11,-29.76,-11.34,47.71,32.11,-1.2,65253.0,0.24,-0.62,0.76,-52.99,-20.98,-13.48,49.66,31.51,-1.5,0.0,0.0,0.0,0.0,0.0,0.0,0.0,0.0,0.0,0.0,0.0,0.0,0.0,0.0,0.0,0.0,0.0,0.0,0.0,0.0,0.0
,,124044.209519,7.46869683265686,0.0,0.0,0.0,0.0,0.0,0.0,0.0,0.0,0.0,0.0,0.0,65262.0,0.25,-0.63,0.74,-40.98,-16.83,-21.04,51.16,32.56,-2.85,65271.0,0.2,-0.64,0.65,-32.62,-5.61,-15.24,48.31,31.96,-3.75,0.0,0.0,0.0,0.0,0.0,0.0,0.0,0.0,0.0,0.0,0.0,0.0,0.0,0.0,0.0,0.0,0.0,0.0,0.0,0.0,0.0
,,124044.227632,7.486816644668579,0.0,0.0,0.0,0.0,0.0,0.0,0.0,0.0,0.0,0.0,0.0,65279.0,0.33,-0.73,0.72,-34.09,10.91,-9.33,50.11,31.51,-2.85,65288.0,0.31,-0.74,0.62,-40.55,8.11,-12.07,47.56,31.51,-3.75,0.0,0.0,0.0,0.0,0.0,0.0,0.0,0.0,0.0,0.0,0.0,0.0,0.0,0.0,0.0,0.0,0.0,0.0,0.0,0.0,0.0
,,124044.275261,7.53446888923645,0.0,0.0,0.0,0.0,0.0,0.0,0.0,0.0,0.0,0.0,0.0,65297.0,0.35,-0.67,0.66,-52.93,10.85,-8.29,48.16,32.41,-3.3,65336.0,0.3,-0.68,0.66,-50.18,4.02,3.11,50.71,32.26,-2.1,0.0,0.0,0.0,0.0,0.0,0.0,0.0,0.0,0.0,0.0,0.0,0.0,0.0,0.0,0.0,0.0,0.0,0.0,0.0,0.0,0.0
,,124044.293061,7.552260637283325,0.0,0.0,0.0,0.0,0.0,0.0,0.0,0.0,0.0,0.0,0.0,65345.0,0.29,-0.66,0.66,-48.17,-2.2,6.71,50.26,34.21,-3.6,65354.0,0.28,-0.65,0.68,-44.33,-4.21,8.05,50.26,34.21,-3.6,0.0,0.0,0.0,0.0,0.0,0.0,0.0,0.0,0.0,0.0,0.0,0.0,0.0,0.0,0.0,0.0,0.0,0.0,0.0,0.0,0.0
,,124044.310993,7.5701892375946045,0.0,0.0,0.0,0.0,0.0,0.0,0.0,0.0,0.0,0.0,0.0,65363.0,0.25,-0.67,0.66,-33.6,-6.04,5.18,50.26,32.86,-4.35,65371.0,0.27,-0.67,0.67,-24.09,-4.33,2.01,50.41,31.51,-4.2,0.0,0.0,0.0,0.0,0.0,0.0,0.0,0.0,0.0,0.0,0.0,0.0,0.0,0.0,0.0,0.0,0.0,0.0,0.0,0.0,0.0
,,124044.327793,7.586984634399414,0.0,0.0,0.0,0.0,0.0,0.0,0.0,0.0,0.0,0.0,0.0,65380.0,0.29,-0.71,0.67,-15.0,-1.89,0.12,50.26,32.41,-6.3,65389.0,0.3,-0.73,0.63,-6.71,0.12,-1.22,49.51,32.11,-5.7,0.0,0.0,0.0,0.0,0.0,0.0,0.0,0.0,0.0,0.0,0.0,0.0,0.0,0.0,0.0,0.0,0.0,0.0,0.0,0.0,0.0
,,124044.345208,7.604398250579834,0.0,0.0,0.0,0.0,0.0,0.0,0.0,0.0,0.0,0.0,0.0,65398.0,0.32,-0.76,0.6,-2.44,3.11,-0.37,50.26,30.76,-4.65,65406.0,0.36,-0.83,0.55,-8.29,3.11,2.44,49.81,31.06,-6.75,0.0,0.0,0.0,0.0,0.0,0.0,0.0,0.0,0.0,0.0,0.0,0.0,0.0,0.0,0.0,0.0,0.0,0.0,0.0,0.0,0.0
,,124044.363057,7.62224268913269,0.0,0.0,0.0,0.0,0.0,0.0,0.0,0.0,0.0,0.0,0.0,65415.0,0.37,-0.84,0.59,-31.28,8.23,9.21,49.81,30.31,-7.05,65424.0,0.34,-0.8,0.63,-58.9,12.68,13.9,49.81,30.31,-7.05,0.0,0.0,0.0,0.0,0.0,0.0,0.0,0.0,0.0,0.0,0.0,0.0,0.0,0.0,0.0,0.0,0.0,0.0,0.0,0.0,0.0
,,124044.381785,7.640980243682861,0.0,0.0,0.0,0.0,0.0,0.0,0.0,0.0,0.0,0.0,0.0,65433.0,0.21,-0.84,0.67,-83.6,14.88,8.96,49.21,30.01,-7.35,65442.0,0.13,-0.82,0.69,-107.68,13.9,-25.98,50.11,30.46,-6.45,0.0,0.0,0.0,0.0,0.0,0.0,0.0,0.0,0.0,0.0,0.0,0.0,0.0,0.0,0.0,0.0,0.0,0.0,0.0,0.0,0.0
,,124044.402938,7.6621363162994385,0.0,0.0,0.0,0.0,0.0,0.0,0.0,0.0,0.0,0.0,0.0,65451.0,0.23,-0.68,0.66,-109.51,19.51,-63.84,50.41,29.86,-6.45,65460.0,0.33,-0.48,0.71,-78.66,22.2,-71.95,49.81,30.76,-6.75,0.0,0.0,0.0,0.0,0.0,0.0,0.0,0.0,0.0,0.0,0.0,0.0,0.0,0.0,0.0,0.0,0.0,0.0,0.0,0.0,0.0
,,124044.447549,7.706754684448242,0.0,0.0,0.0,0.0,0.0,0.0,0.0,0.0,0.0,0.0,0.0,65499.0,0.29,-0.51,0.65,-47.13,14.88,-34.94,50.86,32.86,-6.75,65508.0,0.27,-0.74,0.69,-31.4,14.02,-5.43,51.16,30.91,-7.8,0.0,0.0,0.0,0.0,0.0,0.0,0.0,0.0,0.0,0.0,0.0,0.0,0.0,0.0,0.0,0.0,0.0,0.0,0.0,0.0,0.0
,,124044.464942,7.7241222858428955,0.0,0.0,0.0,0.0,0.0,0.0,0.0,0.0,0.0,0.0,0.0,65517.0,0.31,-0.76,0.63,-8.23,1.16,-9.27,50.56,29.71,-8.4,65526.0,0.31,-0.75,0.58,2.74,-2.68,-5.85,49.21,29.71,-10.8,0.0,0.0,0.0,0.0,0.0,0.0,0.0,0.0,0.0,0.0,0.0,0.0,0.0,0.0,0.0,0.0,0.0,0.0,0.0,0.0,0.0
,,124044.482495,7.7416863441467285,0.0,0.0,0.0,0.0,0.0,0.0,0.0,0.0,0.0,0.0,0.0,65535.0,0.33,-0.8,0.54,8.11,-5.24,-1.71,51.16,30.16,-8.85,65544.0,0.38,-0.87,0.53,-0.55,-8.29,-1.71,51.16,30.16,-8.85,0.0,0.0,0.0,0.0,0.0,0.0,0.0,0.0,0.0,0.0,0.0,0.0,0.0,0.0,0.0,0.0,0.0,0.0,0.0,0.0,0.0
,,124044.500333,7.759522438049316,0.0,0.0,0.0,0.0,0.0,0.0,0.0,0.0,0.0,0.0,0.0,65552.0,0.37,-0.83,0.6,-24.15,-12.26,-1.65,50.71,29.86,-9.15,65561.0,0.34,-0.83,0.63,-45.3,-17.32,0.37,50.26,31.06,-12.45,0.0,0.0,0.0,0.0,0.0,0.0,0.0,0.0,0.0,0.0,0.0,0.0,0.0,0.0,0.0,0.0,0.0,0.0,0.0,0.0,0.0
,,124044.518501,7.777695894241333,0.0,0.0,0.0,0.0,0.0,0.0,0.0,0.0,0.0,0.0,0.0,65570.0,0.28,-0.78,0.62,-64.02,-20.61,-1.04,51.16,31.21,-11.55,65579.0,0.25,-0.74,0.64,-77.56,-19.33,-3.23,51.91,33.16,-11.7,0.0,0.0,0.0,0.0,0.0,0.0,0.0,0.0,0.0,0.0,0.0,0.0,0.0,0.0,0.0,0.0,0.0,0.0,0.0,0.0,0.0
,,124044.536896,7.796101331710815,0.0,0.0,0.0,0.0,0.0,0.0,0.0,0.0,0.0,0.0,0.0,65588.0,0.25,-0.7,0.6,-80.55,-19.94,-5.18,51.31,31.81,-13.5,65597.0,0.26,-0.7,0.59,-73.6,-17.68,-5.73,51.31,30.76,-14.1,0.0,0.0,0.0,0.0,0.0,0.0,0.0,0.0,0.0,0.0,0.0,0.0,0.0,0.0,0.0,0.0,0.0,0.0,0.0,0.0,0.0
,,124044.554042,7.813227415084839,0.0,0.0,0.0,0.0,0.0,0.0,0.0,0.0,0.0,0.0,0.0,65606.0,0.28,-0.75,0.52,-57.74,-20.49,-6.16,49.21,30.76,-15.45,65615.0,0.32,-0.78,0.5,-44.15,-20.67,-6.71,50.71,31.51,-16.35,0.0,0.0,0.0,0.0,0.0,0.0,0.0,0.0,0.0,0.0,0.0,0.0,0.0,0.0,0.0,0.0,0.0,0.0,0.0,0.0,0.0
,,124044.602207,7.861437082290649,0.0,0.0,0.0,0.0,0.0,0.0,0.0,0.0,0.0,0.0,0.0,65654.0,0.37,-0.87,0.52,-34.51,-24.15,-5.85,51.31,31.36,-15.75,65663.0,0.41,-0.94,0.53,-46.28,-29.09,-1.77,51.31,31.81,-15.15,0.0,0.0,0.0,0.0,0.0,0.0,0.0,0.0,0.0,0.0,0.0,0.0,0.0,0.0,0.0,0.0,0.0,0.0,0.0,0.0,0.0
,,124044.619993,7.879179239273071,0.0,0.0,0.0,0.0,0.0,0.0,0.0,0.0,0.0,0.0,0.0,65672.0,0.45,-0.95,0.6,-80.61,-41.22,2.2,51.76,30.91,-16.05,65681.0,0.36,-0.87,0.61,-103.78,-51.16,3.11,51.16,30.46,-18.0,0.0,0.0,0.0,0.0,0.0,0.0,0.0,0.0,0.0,0.0,0.0,0.0,0.0,0.0,0.0,0.0,0.0,0.0,0.0,0.0,0.0
,,124044.638039,7.897228002548218,0.0,0.0,0.0,0.0,0.0,0.0,0.0,0.0,0.0,0.0,0.0,65690.0,0.27,-0.8,0.51,-108.11,-54.7,2.38,50.11,30.91,-19.35,65699.0,0.26,-0.78,0.45,-103.66,-54.51,-1.71,51.31,32.11,-18.9,0.0,0.0,0.0,0.0,0.0,0.0,0.0,0.0,0.0,0.0,0.0,0.0,0.0,0.0,0.0,0.0,0.0,0.0,0.0,0.0,0.0
,,124044.655833,7.915021896362305,0.0,0.0,0.0,0.0,0.0,0.0,0.0,0.0,0.0,0.0,0.0,65708.0,0.26,-0.78,0.38,-90.85,-45.55,-6.95,51.91,29.71,-19.95,65716.0,0.28,-0.77,0.32,-67.74,-36.83,-10.73,51.31,30.31,-20.56,0.0,0.0,0.0,0.0,0.0,0.0,0.0,0.0,0.0,0.0,0.0,0.0,0.0,0.0,0.0,0.0,0.0,0.0,0.0,0.0,0.0
,,124044.673906,7.933089256286621,0.0,0.0,0.0,0.0,0.0,0.0,0.0,0.0,0.0,0.0,0.0,65726.0,0.3,-0.79,0.3,-45.06,-26.4,-10.12,50.26,30.31,-19.5,65734.0,0.35,-0.84,0.31,-27.2,-19.02,-8.72,50.41,29.86,-20.11,0.0,0.0,0.0,0.0,0.0,0.0,0.0,0.0,0.0,0.0,0.0,0.0,0.0,0.0,0.0,0.0,0.0,0.0,0.0,0.0,0.0
,,124044.691612,7.950801134109497,0.0,0.0,0.0,0.0,0.0,0.0,0.0,0.0,0.0,0.0,0.0,65743.0,0.39,-0.88,0.35,-19.21,-15.61,-5.0,50.41,29.86,-20.11,65752.0,0.43,-0.93,0.41,-28.29,-19.76,1.22,50.26,29.71,-21.31,0.0,0.0,0.0,0.0,0.0,0.0,0.0,0.0,0.0,0.0,0.0,0.0,0.0,0.0,0.0,0.0,0.0,0.0,0.0,0.0,0.0
,,124044.709371,7.968575716018677,0.0,0.0,0.0,0.0,0.0,0.0,0.0,0.0,0.0,0.0,0.0,65761.0,0.44,-0.99,0.37,-47.13,-36.22,2.32,49.66,30.91,-23.41,65770.0,0.46,-0.99,0.42,-74.7,-34.51,3.54,50.56,32.11,-23.56,0.0,0.0,0.0,0.0,0.0,0.0,0.0,0.0,0.0,0.0,0.0,0.0,0.0,0.0,0.0,0.0,0.0,0.0,0.0,0.0,0.0
,,124044.758535,8.01774263381958,0.0,0.0,0.0,0.0,0.0,0.0,0.0,0.0,0.0,0.0,0.0,65810.0,0.42,-0.92,0.38,-91.95,-36.71,2.93,50.26,31.06,-28.06,65819.0,0.38,-0.93,0.36,-90.98,-33.9,2.93,50.11,30.16,-26.86,0.0,0.0,0.0,0.0,0.0,0.0,0.0,0.0,0.0,0.0,0.0,0.0,0.0,0.0,0.0,0.0,0.0,0.0,0.0,0.0,0.0
,,124044.776429,8.035641193389893,0.0,0.0,0.0,0.0,0.0,0.0,0.0,0.0,0.0,0.0,0.0,65828.0,0.36,-0.87,0.26,-81.4,-33.29,-0.98,49.81,31.06,-29.11,65837.0,0.33,-0.92,0.24,-68.84,-32.62,-2.99,48.46,32.41,-28.66,0.0,0.0,0.0,0.0,0.0,0.0,0.0,0.0,0.0,0.0,0.0,0.0,0.0,0.0,0.0,0.0,0.0,0.0,0.0,0.0,0.0
,,124044.794009,8.053194761276245,0.0,0.0,0.0,0.0,0.0,0.0,0.0,0.0,0.0,0.0,0.0,65846.0,0.37,-0.89,0.22,-63.9,-36.52,-6.65,49.06,31.51,-30.91,65855.0,0.42,-0.94,0.29,-64.94,-38.05,-5.55,49.36,31.51,-31.51,0.0,0.0,0.0,0.0,0.0,0.0,0.0,0.0,0.0,0.0,0.0,0.0,0.0,0.0,0.0,0.0,0.0,0.0,0.0,0.0,0.0
,,124044.811882,8.07106351852417,0.0,0.0,0.0,0.0,0.0,0.0,0.0,0.0,0.0,0.0,0.0,65864.0,0.44,-0.95,0.34,-76.89,-46.65,-4.82,49.36,31.51,-31.51,65873.0,0.4,-0.96,0.37,-111.4,-64.27,-3.41,50.26,30.31,-31.36,0.0,0.0,0.0,0.0,0.0,0.0,0.0,0.0,0.0,0.0,0.0,0.0,0.0,0.0,0.0,0.0,0.0,0.0,0.0,0.0,0.0
,,124044.829701,8.0888991355896,0.0,0.0,0.0,0.0,0.0,0.0,0.0,0.0,0.0,0.0,0.0,65882.0,0.35,-0.91,0.37,-144.88,-67.32,-1.71,47.71,31.36,-31.06,65890.0,0.31,-0.86,0.2,-146.16,-65.3,-2.26,48.46,30.31,-33.16,0.0,0.0,0.0,0.0,0.0,0.0,0.0,0.0,0.0,0.0,0.0,0.0,0.0,0.0,0.0,0.0,0.0,0.0,0.0,0.0,0.0
,,124044.84746,8.10663890838623,0.0,0.0,0.0,0.0,0.0,0.0,0.0,0.0,0.0,0.0,0.0,65899.0,0.32,-0.86,0.11,-134.57,-52.99,-2.99,47.56,30.16,-32.56,65908.0,0.34,-0.83,0.02,-117.2,-42.68,-5.79,48.76,31.06,-34.06,0.0,0.0,0.0,0.0,0.0,0.0,0.0,0.0,0.0,0.0,0.0,0.0,0.0,0.0,0.0,0.0,0.0,0.0,0.0,0.0,0.0
,,124044.865679,8.124865293502808,0.0,0.0,0.0,0.0,0.0,0.0,0.0,0.0,0.0,0.0,0.0,65917.0,0.36,-0.86,-0.07,-94.15,-34.27,-5.67,47.71,31.36,-34.81,65926.0,0.4,-0.89,-0.01,-85.43,-29.33,-6.28,46.51,30.46,-35.26,0.0,0.0,0.0,0.0,0.0,0.0,0.0,0.0,0.0,0.0,0.0,0.0,0.0,0.0,0.0,0.0,0.0,0.0,0.0,0.0,0.0
,,124044.914456,8.17364764213562,0.0,0.0,0.0,0.0,0.0,0.0,0.0,0.0,0.0,0.0,0.0,65966.0,0.39,-0.92,-0.03,-88.23,-32.93,-6.4,48.31,31.51,-35.26,65975.0,0.41,-0.94,0.0,-101.89,-36.59,-4.88,48.16,32.11,-37.21,0.0,0.0,0.0,0.0,0.0,0.0,0.0,0.0,0.0,0.0,0.0,0.0,0.0,0.0,0.0,0.0,0.0,0.0,0.0,0.0,0.0
,,124044.932119,8.191322803497314,0.0,0.0,0.0,0.0,0.0,0.0,0.0,0.0,0.0,0.0,0.0,65984.0,0.42,-0.97,-0.01,-95.49,-35.43,-1.95,48.16,32.11,-37.21,65993.0,0.41,-0.96,-0.03,-90.12,-35.91,2.2,45.91,32.26,-37.36,0.0,0.0,0.0,0.0,0.0,0.0,0.0,0.0,0.0,0.0,0.0,0.0,0.0,0.0,0.0,0.0,0.0,0.0,0.0,0.0,0.0
,,124044.949945,8.209124088287354,0.0,0.0,0.0,0.0,0.0,0.0,0.0,0.0,0.0,0.0,0.0,66002.0,0.39,-0.93,0.01,-93.6,-33.17,2.93,45.91,31.21,-37.36,66011.0,0.41,-0.94,-0.03,-82.74,-30.73,3.41,44.41,31.51,-38.71,0.0,0.0,0.0,0.0,0.0,0.0,0.0,0.0,0.0,0.0,0.0,0.0,0.0,0.0,0.0,0.0,0.0,0.0,0.0,0.0,0.0
,,124044.967986,8.227190017700195,0.0,0.0,0.0,0.0,0.0,0.0,0.0,0.0,0.0,0.0,0.0,66019.0,0.33,-0.85,0.0,-72.8,-20.61,-0.98,46.66,30.76,-39.91,66028.0,0.35,-0.87,-0.06,-73.9,-20.37,-2.56,43.96,32.86,-39.16,0.0,0.0,0.0,0.0,0.0,0.0,0.0,0.0,0.0,0.0,0.0,0.0,0.0,0.0,0.0,0.0,0.0,0.0,0.0,0.0,0.0
,,124044.985857,8.245055198669434,0.0,0.0,0.0,0.0,0.0,0.0,0.0,0.0,0.0,0.0,0.0,66037.0,0.37,-0.88,-0.08,-80.24,-22.5,-2.5,45.31,31.81,-41.26,66046.0,0.42,-0.92,-0.09,-84.33,-24.45,-1.65,43.51,32.86,-40.21,0.0,0.0,0.0,0.0,0.0,0.0,0.0,0.0,0.0,0.0,0.0,0.0,0.0,0.0,0.0,0.0,0.0,0.0,0.0,0.0,0.0
,,124045.003592,8.262777090072632,0.0,0.0,0.0,0.0,0.0,0.0,0.0,0.0,0.0,0.0,0.0,66055.0,0.4,-0.92,-0.05,-83.54,-27.44,-2.32,44.56,31.06,-41.86,66064.0,0.41,-0.93,-0.09,-71.4,-28.66,-1.95,43.21,32.86,-39.61,0.0,0.0,0.0,0.0,0.0,0.0,0.0,0.0,0.0,0.0,0.0,0.0,0.0,0.0,0.0,0.0,0.0,0.0,0.0,0.0,0.0
,,124045.021334,8.280517339706421,0.0,0.0,0.0,0.0,0.0,0.0,0.0,0.0,0.0,0.0,0.0,66073.0,0.4,-0.92,-0.12,-65.0,-28.9,-0.91,43.21,32.86,-39.61,66082.0,0.41,-0.91,-0.14,-69.21,-28.48,0.85,44.56,30.76,-40.51,0.0,0.0,0.0,0.0,0.0,0.0,0.0,0.0,0.0,0.0,0.0,0.0,0.0,0.0,0.0,0.0,0.0,0.0,0.0,0.0,0.0
,,124045.071728,8.330926656723022,0.0,0.0,0.0,0.0,0.0,0.0,0.0,0.0,0.0,0.0,0.0,66123.0,0.39,-0.91,-0.14,-67.5,-25.24,2.87,43.96,31.36,-42.61,66132.0,0.39,-0.9,-0.13,-64.02,-17.5,5.85,41.86,32.41,-42.61,0.0,0.0,0.0,0.0,0.0,0.0,0.0,0.0,0.0,0.0,0.0,0.0,0.0,0.0,0.0,0.0,0.0,0.0,0.0,0.0,0.0
,,124045.090016,8.349201917648315,0.0,0.0,0.0,0.0,0.0,0.0,0.0,0.0,0.0,0.0,0.0,66141.0,0.39,-0.91,-0.14,-69.33,-15.98,6.46,41.26,33.31,-44.86,66151.0,0.37,-0.89,-0.16,-89.57,-18.78,4.27,42.01,33.01,-44.41,0.0,0.0,0.0,0.0,0.0,0.0,0.0,0.0,0.0,0.0,0.0,0.0,0.0,0.0,0.0,0.0,0.0,0.0,0.0,0.0,0.0
,,124045.109319,8.368526458740234,0.0,0.0,0.0,0.0,0.0,0.0,0.0,0.0,0.0,0.0,0.0,66160.0,0.37,-0.9,-0.17,-87.87,-14.15,3.05,41.41,33.16,-45.01,66169.0,0.37,-0.85,-0.14,-88.6,-14.82,0.24,40.21,33.31,-43.81,0.0,0.0,0.0,0.0,0.0,0.0,0.0,0.0,0.0,0.0,0.0,0.0,0.0,0.0,0.0,0.0,0.0,0.0,0.0,0.0,0.0
,,124045.127071,8.386261940002441,0.0,0.0,0.0,0.0,0.0,0.0,0.0,0.0,0.0,0.0,0.0,66178.0,0.35,-0.82,-0.12,-93.11,-19.39,-3.66,41.11,31.81,-45.31,66187.0,0.33,-0.8,-0.15,-82.87,-20.55,-6.22,38.86,31.96,-45.76,0.0,0.0,0.0,0.0,0.0,0.0,0.0,0.0,0.0,0.0,0.0,0.0,0.0,0.0,0.0,0.0,0.0,0.0,0.0,0.0,0.0
,,124045.144713,8.403908491134644,0.0,0.0,0.0,0.0,0.0,0.0,0.0,0.0,0.0,0.0,0.0,66196.0,0.34,-0.81,-0.21,-76.34,-18.11,-6.83,40.36,32.86,-46.36,66205.0,0.35,-0.81,-0.22,-71.1,-17.44,-8.11,39.31,33.16,-45.61,0.0,0.0,0.0,0.0,0.0,0.0,0.0,0.0,0.0,0.0,0.0,0.0,0.0,0.0,0.0,0.0,0.0,0.0,0.0,0.0,0.0
,,124045.162506,8.4216947555542,0.0,0.0,0.0,0.0,0.0,0.0,0.0,0.0,0.0,0.0,0.0,66214.0,0.35,-0.8,-0.23,-68.78,-14.15,-7.8,39.16,31.96,-47.56,66223.0,0.37,-0.85,-0.29,-64.51,-7.68,-4.02,39.16,31.96,-47.56,0.0,0.0,0.0,0.0,0.0,0.0,0.0,0.0,0.0,0.0,0.0,0.0,0.0,0.0,0.0,0.0,0.0,0.0,0.0,0.0,0.0
,,124045.180171,8.439353704452515,0.0,0.0,0.0,0.0,0.0,0.0,0.0,0.0,0.0,0.0,0.0,66232.0,0.39,-0.85,-0.32,-59.76,-9.51,-2.01,37.81,32.26,-47.86,66241.0,0.39,-0.88,-0.27,-66.46,-9.94,0.49,38.71,33.46,-47.26,0.0,0.0,0.0,0.0,0.0,0.0,0.0,0.0,0.0,0.0,0.0,0.0,0.0,0.0,0.0,0.0,0.0,0.0,0.0,0.0,0.0
,,124045.225661,8.484843015670776,0.0,0.0,0.0,0.0,0.0,0.0,0.0,0.0,0.0,0.0,0.0,66277.0,0.41,-0.86,-0.26,-75.06,-8.66,0.55,37.96,33.91,-47.71,66286.0,0.42,-0.88,-0.33,-72.38,-6.04,2.26,36.76,33.31,-49.51,0.0,0.0,0.0,0.0,0.0,0.0,0.0,0.0,0.0,0.0,0.0,0.0,0.0,0.0,0.0,0.0,0.0,0.0,0.0,0.0,0.0
,,124045.244415,8.503603458404541,0.0,0.0,0.0,0.0,0.0,0.0,0.0,0.0,0.0,0.0,0.0,66296.0,0.4,-0.86,-0.33,-76.1,-5.37,2.07,37.66,33.16,-48.61,66305.0,0.34,-0.85,-0.35,-75.37,-2.01,2.87,34.96,34.36,-49.51,0.0,0.0,0.0,0.0,0.0,0.0,0.0,0.0,0.0,0.0,0.0,0.0,0.0,0.0,0.0,0.0,0.0,0.0,0.0,0.0,0.0
,,124045.262864,8.522042989730835,0.0,0.0,0.0,0.0,0.0,0.0,0.0,0.0,0.0,0.0,0.0,66314.0,0.38,-0.83,-0.38,-69.45,1.4,1.59,35.86,33.16,-50.11,66324.0,0.38,-0.87,-0.32,-58.11,4.88,1.04,35.86,33.16,-50.11,0.0,0.0,0.0,0.0,0.0,0.0,0.0,0.0,0.0,0.0,0.0,0.0,0.0,0.0,0.0,0.0,0.0,0.0,0.0,0.0,0.0
,,124045.281673,8.540866374969482,0.0,0.0,0.0,0.0,0.0,0.0,0.0,0.0,0.0,0.0,0.0,66333.0,0.42,-0.86,-0.32,-51.71,2.32,2.44,37.06,31.96,-48.91,66342.0,0.45,-0.9,-0.29,-47.62,-3.23,3.72,37.06,32.56,-49.21,0.0,0.0,0.0,0.0,0.0,0.0,0.0,0.0,0.0,0.0,0.0,0.0,0.0,0.0,0.0,0.0,0.0,0.0,0.0,0.0,0.0
,,124045.300004,8.559196710586548,0.0,0.0,0.0,0.0,0.0,0.0,0.0,0.0,0.0,0.0,0.0,66351.0,0.43,-0.89,-0.3,-58.9,-3.72,6.28,34.51,33.46,-49.36,66361.0,0.39,-0.88,-0.34,-67.99,-2.93,7.93,36.76,34.06,-48.46,0.0,0.0,0.0,0.0,0.0,0.0,0.0,0.0,0.0,0.0,0.0,0.0,0.0,0.0,0.0,0.0,0.0,0.0,0.0,0.0,0.0
,,124045.31846,8.5776526927948,0.0,0.0,0.0,0.0,0.0,0.0,0.0,0.0,0.0,0.0,0.0,66370.0,0.41,-0.93,-0.43,-71.46,-2.74,9.57,36.16,33.46,-50.11,66379.0,0.41,-0.9,-0.45,-78.48,-3.29,9.09,34.21,32.26,-49.81,0.0,0.0,0.0,0.0,0.0,0.0,0.0,0.0,0.0,0.0,0.0,0.0,0.0,0.0,0.0,0.0,0.0,0.0,0.0,0.0,0.0
,,124045.337211,8.596405744552612,0.0,0.0,0.0,0.0,0.0,0.0,0.0,0.0,0.0,0.0,0.0,66389.0,0.41,-0.85,-0.5,-80.43,2.01,10.55,35.56,34.51,-51.01,66398.0,0.41,-0.84,-0.56,-70.43,0.18,9.57,35.26,33.31,-50.86,0.0,0.0,0.0,0.0,0.0,0.0,0.0,0.0,0.0,0.0,0.0,0.0,0.0,0.0,0.0,0.0,0.0,0.0,0.0,0.0,0.0
,,124045.38785,8.647056102752686,0.0,0.0,0.0,0.0,0.0,0.0,0.0,0.0,0.0,0.0,0.0,66439.0,0.38,-0.82,-0.53,-66.4,-1.77,9.88,35.56,36.01,-50.11,66448.0,0.33,-0.81,-0.46,-59.15,-1.4,8.9,34.81,34.96,-51.46,0.0,0.0,0.0,0.0,0.0,0.0,0.0,0.0,0.0,0.0,0.0,0.0,0.0,0.0,0.0,0.0,0.0,0.0,0.0,0.0,0.0
,,124045.406191,8.665379762649536,0.0,0.0,0.0,0.0,0.0,0.0,0.0,0.0,0.0,0.0,0.0,66457.0,0.34,-0.99,-0.55,-54.27,-3.11,6.22,33.76,34.96,-52.81,66467.0,0.36,-0.78,-0.52,-61.28,-4.63,1.77,32.86,34.06,-52.21,0.0,0.0,0.0,0.0,0.0,0.0,0.0,0.0,0.0,0.0,0.0,0.0,0.0,0.0,0.0,0.0,0.0,0.0,0.0,0.0,0.0
,,124045.424882,8.684066772460938,0.0,0.0,0.0,0.0,0.0,0.0,0.0,0.0,0.0,0.0,0.0,66476.0,0.29,-1.02,-0.54,-36.65,-14.57,-1.89,33.46,33.91,-52.36,66485.0,0.46,-0.9,-0.55,-62.13,-5.73,-6.04,32.11,32.56,-52.21,0.0,0.0,0.0,0.0,0.0,0.0,0.0,0.0,0.0,0.0,0.0,0.0,0.0,0.0,0.0,0.0,0.0,0.0,0.0,0.0,0.0
,,124045.443681,8.702878475189209,0.0,0.0,0.0,0.0,0.0,0.0,0.0,0.0,0.0,0.0,0.0,66495.0,0.38,-0.79,-0.39,-59.02,-11.4,-5.43,32.41,35.26,-51.46,66504.0,0.36,-0.83,-0.51,-31.1,-13.23,-0.79,31.81,33.31,-51.16,0.0,0.0,0.0,0.0,0.0,0.0,0.0,0.0,0.0,0.0,0.0,0.0,0.0,0.0,0.0,0.0,0.0,0.0,0.0,0.0,0.0
,,124045.462367,8.721583843231201,0.0,0.0,0.0,0.0,0.0,0.0,0.0,0.0,0.0,0.0,0.0,66513.0,0.43,-0.81,-0.61,-35.3,-7.87,3.66,31.81,33.31,-51.16,66523.0,0.38,-0.76,-0.5,-41.83,-4.39,7.93,32.11,34.81,-51.91,0.0,0.0,0.0,0.0,0.0,0.0,0.0,0.0,0.0,0.0,0.0,0.0,0.0,0.0,0.0,0.0,0.0,0.0,0.0,0.0,0.0
,,124045.480852,8.740052938461304,0.0,0.0,0.0,0.0,0.0,0.0,0.0,0.0,0.0,0.0,0.0,66532.0,0.34,-0.75,-0.46,-38.29,-6.4,9.7,33.01,33.91,-52.36,66541.0,0.33,-0.7,-0.55,-38.78,-6.04,8.6,32.11,34.81,-51.61,0.0,0.0,0.0,0.0,0.0,0.0,0.0,0.0,0.0,0.0,0.0,0.0,0.0,0.0,0.0,0.0,0.0,0.0,0.0,0.0,0.0
,,124045.499368,8.758580684661865,0.0,0.0,0.0,0.0,0.0,0.0,0.0,0.0,0.0,0.0,0.0,66550.0,0.34,-0.73,-0.52,-45.37,0.67,6.83,32.71,34.21,-52.36,66560.0,0.27,-0.61,-0.64,-38.72,-3.41,5.12,32.71,34.96,-52.81,0.0,0.0,0.0,0.0,0.0,0.0,0.0,0.0,0.0,0.0,0.0,0.0,0.0,0.0,0.0,0.0,0.0,0.0,0.0,0.0,0.0
,,124045.549215,8.808423280715942,0.0,0.0,0.0,0.0,0.0,0.0,0.0,0.0,0.0,0.0,0.0,66600.0,0.31,-0.66,-0.71,-21.83,-3.9,3.84,30.01,33.76,-52.96,66610.0,0.38,-0.74,-0.63,-18.23,-1.1,3.05,29.26,34.51,-53.11,0.0,0.0,0.0,0.0,0.0,0.0,0.0,0.0,0.0,0.0,0.0,0.0,0.0,0.0,0.0,0.0,0.0,0.0,0.0,0.0,0.0
,,124045.568118,8.827309846878052,0.0,0.0,0.0,0.0,0.0,0.0,0.0,0.0,0.0,0.0,0.0,66619.0,0.36,-0.79,-0.57,-24.21,-3.84,1.52,28.66,34.81,-54.61,66628.0,0.33,-0.7,-0.67,-26.95,-5.43,1.89,27.91,34.81,-53.56,0.0,0.0,0.0,0.0,0.0,0.0,0.0,0.0,0.0,0.0,0.0,0.0,0.0,0.0,0.0,0.0,0.0,0.0,0.0,0.0,0.0
,,124045.586632,8.845823049545288,0.0,0.0,0.0,0.0,0.0,0.0,0.0,0.0,0.0,0.0,0.0,66637.0,0.29,-0.71,-0.66,-36.89,-9.57,1.65,28.36,33.31,-54.91,66647.0,0.36,-0.85,-0.61,-53.72,-11.28,-2.62,27.46,35.26,-54.46,0.0,0.0,0.0,0.0,0.0,0.0,0.0,0.0,0.0,0.0,0.0,0.0,0.0,0.0,0.0,0.0,0.0,0.0,0.0,0.0,0.0
,,124045.604932,8.864114761352539,0.0,0.0,0.0,0.0,0.0,0.0,0.0,0.0,0.0,0.0,0.0,66656.0,0.39,-0.69,-0.46,-77.07,-8.05,-0.67,25.51,32.56,-54.91,66665.0,0.24,-0.62,-0.46,-62.68,-18.66,1.1,25.66,34.96,-54.76,0.0,0.0,0.0,0.0,0.0,0.0,0.0,0.0,0.0,0.0,0.0,0.0,0.0,0.0,0.0,0.0,0.0,0.0,0.0,0.0,0.0
,,124045.623563,8.882743835449219,0.0,0.0,0.0,0.0,0.0,0.0,0.0,0.0,0.0,0.0,0.0,66675.0,0.3,-0.57,-0.67,-59.02,-11.95,0.49,23.56,34.21,-55.51,66684.0,0.33,-0.72,-0.55,-41.65,-9.7,3.29,23.26,34.96,-57.16,0.0,0.0,0.0,0.0,0.0,0.0,0.0,0.0,0.0,0.0,0.0,0.0,0.0,0.0,0.0,0.0,0.0,0.0,0.0,0.0,0.0
,,124045.642633,8.90183973312378,0.0,0.0,0.0,0.0,0.0,0.0,0.0,0.0,0.0,0.0,0.0,66693.0,0.36,-0.7,-0.56,-25.98,-4.21,4.33,23.26,34.96,-57.16,66703.0,0.38,-0.71,-0.66,0.12,4.09,9.02,23.26,33.16,-56.41,0.0,0.0,0.0,0.0,0.0,0.0,0.0,0.0,0.0,0.0,0.0,0.0,0.0,0.0,0.0,0.0,0.0,0.0,0.0,0.0,0.0
,,124045.660452,8.919638633728027,0.0,0.0,0.0,0.0,0.0,0.0,0.0,0.0,0.0,0.0,0.0,66712.0,0.4,-0.87,-0.67,2.93,12.68,11.71,21.76,33.91,-56.86,66721.0,0.42,-0.8,-0.77,-15.91,17.99,6.59,21.16,33.46,-57.16,0.0,0.0,0.0,0.0,0.0,0.0,0.0,0.0,0.0,0.0,0.0,0.0,0.0,0.0,0.0,0.0,0.0,0.0,0.0,0.0,0.0
,,124045.71161,8.970807075500488,0.0,0.0,0.0,0.0,0.0,0.0,0.0,0.0,0.0,0.0,0.0,66763.0,0.42,-0.78,-0.57,-30.12,14.76,3.72,23.56,34.51,-53.71,66772.0,0.42,-0.77,-0.55,-33.17,4.09,0.61,20.56,35.41,-56.26,0.0,0.0,0.0,0.0,0.0,0.0,0.0,0.0,0.0,0.0,0.0,0.0,0.0,0.0,0.0,0.0,0.0,0.0,0.0,0.0,0.0
,,124045.730029,8.98922872543335,0.0,0.0,0.0,0.0,0.0,0.0,0.0,0.0,0.0,0.0,0.0,66781.0,0.37,-0.8,-0.71,-39.57,-3.05,-1.77,20.11,32.86,-56.11,66791.0,0.45,-0.83,-0.51,-63.96,1.46,-5.61,18.0,33.46,-57.76,0.0,0.0,0.0,0.0,0.0,0.0,0.0,0.0,0.0,0.0,0.0,0.0,0.0,0.0,0.0,0.0,0.0,0.0,0.0,0.0,0.0
,,124045.748572,9.007765769958496,0.0,0.0,0.0,0.0,0.0,0.0,0.0,0.0,0.0,0.0,0.0,66800.0,0.39,-0.78,-0.51,-78.9,-5.98,-4.33,17.25,32.86,-57.16,66809.0,0.4,-0.76,-0.66,-81.59,-7.32,0.49,16.95,33.46,-58.51,0.0,0.0,0.0,0.0,0.0,0.0,0.0,0.0,0.0,0.0,0.0,0.0,0.0,0.0,0.0,0.0,0.0,0.0,0.0,0.0,0.0
,,124045.767529,9.026717901229858,0.0,0.0,0.0,0.0,0.0,0.0,0.0,0.0,0.0,0.0,0.0,66818.0,0.38,-0.72,-0.65,-89.82,-5.73,3.35,15.9,33.91,-58.21,66828.0,0.32,-0.63,-0.69,-86.4,-5.98,4.15,19.5,35.86,-58.36,0.0,0.0,0.0,0.0,0.0,0.0,0.0,0.0,0.0,0.0,0.0,0.0,0.0,0.0,0.0,0.0,0.0,0.0,0.0,0.0,0.0
,,124045.785913,9.045125961303711,0.0,0.0,0.0,0.0,0.0,0.0,0.0,0.0,0.0,0.0,0.0,66837.0,0.29,-0.53,-0.74,-77.8,-4.82,3.29,16.05,33.76,-57.31,66846.0,0.3,-0.59,-0.65,-72.32,-5.18,1.71,16.8,33.76,-58.36,0.0,0.0,0.0,0.0,0.0,0.0,0.0,0.0,0.0,0.0,0.0,0.0,0.0,0.0,0.0,0.0,0.0,0.0,0.0,0.0,0.0
,,124045.804369,9.063554286956787,0.0,0.0,0.0,0.0,0.0,0.0,0.0,0.0,0.0,0.0,0.0,66856.0,0.34,-0.64,-0.69,-65.3,-4.39,-1.59,16.35,33.31,-58.66,66865.0,0.36,-0.64,-0.7,-77.2,-1.46,-6.59,15.9,34.21,-56.11,0.0,0.0,0.0,0.0,0.0,0.0,0.0,0.0,0.0,0.0,0.0,0.0,0.0,0.0,0.0,0.0,0.0,0.0,0.0,0.0,0.0
,,124045.823131,9.08232831954956,0.0,0.0,0.0,0.0,0.0,0.0,0.0,0.0,0.0,0.0,0.0,66874.0,0.34,-0.64,-0.61,-89.15,-3.48,-8.96,15.3,33.31,-58.66,66883.0,0.33,-0.6,-0.6,-102.99,-3.96,-11.71,15.3,33.31,-58.66,0.0,0.0,0.0,0.0,0.0,0.0,0.0,0.0,0.0,0.0,0.0,0.0,0.0,0.0,0.0,0.0,0.0,0.0,0.0,0.0,0.0
,,124045.873745,9.132934093475342,0.0,0.0,0.0,0.0,0.0,0.0,0.0,0.0,0.0,0.0,0.0,66924.0,0.35,-0.64,-0.71,-108.23,-2.2,-10.3,15.3,33.31,-57.31,66934.0,0.36,-0.6,-0.77,-110.18,5.37,-8.17,15.3,36.16,-58.06,0.0,0.0,0.0,0.0,0.0,0.0,0.0,0.0,0.0,0.0,0.0,0.0,0.0,0.0,0.0,0.0,0.0,0.0,0.0,0.0,0.0
,,124045.891964,9.151152610778809,0.0,0.0,0.0,0.0,0.0,0.0,0.0,0.0,0.0,0.0,0.0,66943.0,0.37,-0.55,-0.82,-100.43,7.93,-5.67,15.3,36.16,-58.06,66952.0,0.37,-0.53,-0.78,-84.63,9.33,-2.62,13.95,33.76,-57.01,0.0,0.0,0.0,0.0,0.0,0.0,0.0,0.0,0.0,0.0,0.0,0.0,0.0,0.0,0.0,0.0,0.0,0.0,0.0,0.0,0.0
,,124045.910934,9.170143127441406,0.0,0.0,0.0,0.0,0.0,0.0,0.0,0.0,0.0,0.0,0.0,66962.0,0.34,-0.49,-0.75,-75.73,7.62,-2.32,13.95,33.76,-58.66,66971.0,0.4,-0.52,-0.88,-64.21,1.89,-2.93,14.25,32.26,-58.06,0.0,0.0,0.0,0.0,0.0,0.0,0.0,0.0,0.0,0.0,0.0,0.0,0.0,0.0,0.0,0.0,0.0,0.0,0.0,0.0,0.0
,,124045.929108,9.188294887542725,0.0,0.0,0.0,0.0,0.0,0.0,0.0,0.0,0.0,0.0,0.0,66980.0,0.31,-0.5,-0.8,-38.6,-6.52,0.79,13.65,33.31,-58.06,66989.0,0.33,-0.52,-0.75,-34.51,-8.96,0.43,15.15,34.21,-58.51,0.0,0.0,0.0,0.0,0.0,0.0,0.0,0.0,0.0,0.0,0.0,0.0,0.0,0.0,0.0,0.0,0.0,0.0,0.0,0.0,0.0
,,124045.947392,9.206577062606812,0.0,0.0,0.0,0.0,0.0,0.0,0.0,0.0,0.0,0.0,0.0,66999.0,0.39,-0.52,-0.72,-44.7,-9.7,0.61,13.8,34.51,-58.51,67008.0,0.38,-0.54,-0.82,-57.38,-7.44,-1.89,12.15,31.96,-57.31,0.0,0.0,0.0,0.0,0.0,0.0,0.0,0.0,0.0,0.0,0.0,0.0,0.0,0.0,0.0,0.0,0.0,0.0,0.0,0.0,0.0
,,124045.966357,9.225592613220215,0.0,0.0,0.0,0.0,0.0,0.0,0.0,0.0,0.0,0.0,0.0,67017.0,0.34,-0.49,-0.88,-76.4,-1.1,-5.79,12.9,34.81,-56.71,67027.0,0.39,-0.44,-0.77,-78.11,1.59,-8.72,11.85,34.06,-57.31,0.0,0.0,0.0,0.0,0.0,0.0,0.0,0.0,0.0,0.0,0.0,0.0,0.0,0.0,0.0,0.0,0.0,0.0,0.0,0.0,0.0
,,124045.984783,9.243965148925781,0.0,0.0,0.0,0.0,0.0,0.0,0.0,0.0,0.0,0.0,0.0,67036.0,0.39,-0.42,-0.79,-79.33,5.85,-13.05,10.8,33.01,-57.31,67045.0,0.33,-0.37,-0.67,-64.21,-10.37,-12.2,10.65,33.91,-57.76,0.0,0.0,0.0,0.0,0.0,0.0,0.0,0.0,0.0,0.0,0.0,0.0,0.0,0.0,0.0,0.0,0.0,0.0,0.0,0.0,0.0
,,124046.036593,9.295782089233398,0.0,0.0,0.0,0.0,0.0,0.0,0.0,0.0,0.0,0.0,0.0,67087.0,0.32,-0.46,-0.88,-43.96,-22.38,-10.73,10.8,34.36,-57.01,67097.0,0.31,-0.38,-0.78,-51.77,-17.07,-15.0,10.2,33.46,-56.86,0.0,0.0,0.0,0.0,0.0,0.0,0.0,0.0,0.0,0.0,0.0,0.0,0.0,0.0,0.0,0.0,0.0,0.0,0.0,0.0,0.0
,,124046.055709,9.314897298812866,0.0,0.0,0.0,0.0,0.0,0.0,0.0,0.0,0.0,0.0,0.0,67106.0,0.29,-0.4,-0.81,-49.7,-16.46,-16.65,7.5,33.91,-57.46,67115.0,0.32,-0.42,-0.88,-42.87,-5.55,-17.26,7.95,34.36,-57.61,0.0,0.0,0.0,0.0,0.0,0.0,0.0,0.0,0.0,0.0,0.0,0.0,0.0,0.0,0.0,0.0,0.0,0.0,0.0,0.0,0.0
,,124046.073658,9.332837581634521,0.0,0.0,0.0,0.0,0.0,0.0,0.0,0.0,0.0,0.0,0.0,67125.0,0.4,-0.47,-0.87,-39.51,6.22,-15.12,7.8,34.51,-58.21,67134.0,0.43,-0.55,-0.85,-34.02,13.66,-9.27,7.5,33.91,-57.16,0.0,0.0,0.0,0.0,0.0,0.0,0.0,0.0,0.0,0.0,0.0,0.0,0.0,0.0,0.0,0.0,0.0,0.0,0.0,0.0,0.0
,,124046.092311,9.35150408744812,0.0,0.0,0.0,0.0,0.0,0.0,0.0,0.0,0.0,0.0,0.0,67143.0,0.43,-0.55,-0.91,-35.79,18.96,-3.72,7.5,33.91,-57.16,67153.0,0.46,-0.44,-0.8,-50.12,27.74,1.89,5.25,35.41,-55.96,0.0,0.0,0.0,0.0,0.0,0.0,0.0,0.0,0.0,0.0,0.0,0.0,0.0,0.0,0.0,0.0,0.0,0.0,0.0,0.0,0.0
,,124046.110782,9.369964361190796,0.0,0.0,0.0,0.0,0.0,0.0,0.0,0.0,0.0,0.0,0.0,67162.0,0.36,-0.42,-0.71,-38.84,13.05,6.59,6.0,34.51,-57.16,67171.0,0.37,-0.37,-0.83,-27.5,7.74,10.67,5.25,34.06,-57.01,0.0,0.0,0.0,0.0,0.0,0.0,0.0,0.0,0.0,0.0,0.0,0.0,0.0,0.0,0.0,0.0,0.0,0.0,0.0,0.0,0.0
,,124046.129163,9.388352394104004,0.0,0.0,0.0,0.0,0.0,0.0,0.0,0.0,0.0,0.0,0.0,67180.0,0.32,-0.34,-0.8,-32.99,5.98,8.6,6.6,34.36,-55.66,67190.0,0.29,-0.3,-0.79,-30.98,3.29,4.88,4.65,34.51,-56.41,0.0,0.0,0.0,0.0,0.0,0.0,0.0,0.0,0.0,0.0,0.0,0.0,0.0,0.0,0.0,0.0,0.0,0.0,0.0,0.0,0.0
