name,date,time,time since start,vicon_sequence,vicon_time_stamp,vicon_frame_id,vicon_child_frame_id,vicon_translation_x,vicon_translation_y,vicon_translation_z,vicon_rotation_x,vicon_rotation_y,vicon_rotation_z,vicon_rotation_w,int_imu_time_stamp,int_imu_acc_x,int_imu_acc_y,int_imu_acc_z,int_imu_gyro_x,int_imu_gyro_y,int_imu_gyro_z,int_imu_mag_x,int_imu_mag_y,int_imu_mag_z,ext_imu_time_stamp,ext_imu_acc_x,ext_imu_acc_y,ext_imu_acc_z,ext_imu_gyro_x,ext_imu_gyro_y,ext_imu_gyro_z,ext_imu_mag_x,ext_imu_mag_y,ext_imu_mag_z,dji_imu_sequence,dji_imu_time_stamp,dji_imu_frame_id,dji_imu_orientation_x,dji_imu_orientation_y,dji_imu_orientation_z,dji_imu_ang_vel_x,dji_imu_ang_vel_y,dji_imu_ang_vel_z,dji_imu_lin_acc_x,dji_imu_lin_acc_y,dji_imu_lin_acc_z,rc_sequence,rc_time_stamp,rc_frame_id,rc_roll,rc_pitch,rc_yaw,rc_throttle,rc_mode,rc_landing_gear
/home/wc18ny/Desktop/VibrationTest/data2.csv,20201013,155357.215666,2.4318695068359375e-05,44155,1602597237.207576,vicon,object name,0.8612988173560135,1.1962537928567851,1.0,2.98635549590859,1.0,2.0,3.4857830253825544,"1684955,","-0.04,","0.03,","-1.03,","-4.94,","-5.61,","-4.70,","8.85,","70.82,",-47.71,"1684964,","-0.05,","0.04,","-1.04,","-6.65,","-3.41,","-6.40,","9.60,","69.77,",-50.11,63340,1602597237.203838,1234,0.5717998264402829,1.4841726382297218,2.2484991264216894,0.6461868255578052,1.5697499662715937,2.0064983809598753,0.2820284072885574,1.8804877290106998,2.2383482429358543,63332,1602597237.203838,4321,0.8909645676612854,1.588645100593567,2.7533390522003174,3.055697441101074,4.940643310546875,5.091662883758545
,,155357.217857,0.002213716506958008,44155,1602597237.207576,vicon,object name,0.8612988173560135,1.1962537928567851,1.0,2.98635549590859,1.0,2.0,3.4857830253825544,"1684974,","-0.06,","0.04,","-1.06,","-11.89,","1.10,","-8.41,","8.85,","72.17,",-47.71,"1684983,","-0.07,","0.05,","-1.02,","-17.80,","6.40,","-10.30,","10.20,","70.07,",-50.41,63340,1602597237.203838,1234,0.5717998264402829,1.4841726382297218,2.2484991264216894,0.6461868255578052,1.5697499662715937,2.0064983809598753,0.2820284072885574,1.8804877290106998,2.2383482429358543,63332,1602597237.203838,4321,0.8909645676612854,1.588645100593567,2.7533390522003174,3.055697441101074,4.940643310546875,5.091662883758545
,,155357.238159,0.02251434326171875,44157,1602597237.227584,vicon,object name,0.0814754818253407,1.4570939124492168,1.0,2.810958759604641,1.0,2.0,3.360458009462345,"1685040,","-0.06,","0.01,","-0.96,","-16.10,","4.51,","-9.02,","9.90,","69.77,",-50.11,"1685050,","-0.04,","0.03,","-1.06,","-12.93,","-2.32,","-10.85,","12.00,","70.07,",-49.06,63343,1602597237.233768,1234,0.9820600306435076,1.4740581053986745,2.9672354806729158,0.7333448213833709,1.3972632537013165,2.000230326151705,0.8611685438556125,1.144981245347302,2.9194198127248923,63335,1602597237.233768,4321,0.31649306416511536,1.0450096130371094,2.2580270767211914,3.7412140369415283,4.920608043670654,5.157567501068115
,,155357.258993,0.043364763259887695,44159,1602597237.247598,vicon,object name,0.4854097932213729,1.6968017130424728,1.0,2.427671733534756,1.0,2.0,3.7561284997491033,"1685059,","-0.05,","0.06,","-1.05,","-15.91,","3.35,","-12.80,","11.10,","69.62,",-49.81,"1685069,","-0.06,","0.10,","-1.03,","-16.04,","5.85,","-14.45,","9.15,","70.82,",-49.66,63345,1602597237.253788,1234,0.48358501204879645,1.078481799321806,2.321502873662295,0.582847325893158,1.788190192355048,2.069391453494132,0.3530879559261658,1.1017812237053357,2.079540024187814,63337,1602597237.253788,4321,0.22015893459320068,1.655767798423767,2.0439651012420654,3.6520955562591553,4.514535427093506,5.1710124015808105
,,155357.277909,0.06226682662963867,44161,1602597237.26759,vicon,object name,0.7140222883639775,1.3165773835763042,1.0,2.0328318806472074,1.0,2.0,3.9557761972957,"1685079,","-0.06,","0.08,","-1.06,","-12.26,","3.96,","-13.05,","10.80,","70.67,",-50.86,"1685088,","-0.07,","0.06,","-1.04,","-10.06,","6.40,","-13.72,","10.50,","70.67,",-49.51,63346,1602597237.263777,1234,0.24352424871515532,1.9742276314563996,2.257007249303343,0.25066732001316605,1.8362295144945606,2.8700030593176766,0.6059779304165956,1.8360367867217664,2.3716652087504495,63338,1602597237.263777,4321,0.6708887219429016,1.5243383646011353,2.905787229537964,3.6352007389068604,4.4175543785095215,5.454013824462891
,,155357.298794,0.08314704895019531,44163,1602597237.28758,vicon,object name,0.6618225495530656,1.77633772390781,1.0,2.4602121496775657,1.0,2.0,3.3079188253632092,"1685098,","-0.07,","0.11,","-1.03,","-7.93,","7.99,","-15.24,","10.20,","70.07,",-51.01,"1685108,","-0.08,","0.11,","-1.00,","-2.74,","8.96,","-14.63,","10.65,","70.37,",-51.01,63349,1602597237.293897,1234,0.8181681072233425,1.4723585617914243,2.957252206123538,0.05988500886836157,1.8834030974476244,2.680862661319817,0.8219596205319568,1.5054112491762988,2.038768301489856,63341,1602597237.293897,4321,0.632870614528656,1.9178729057312012,2.869004249572754,3.9375171661376953,4.2344794273376465,5.019003868103027
,,155357.318332,0.1026914119720459,44165,1602597237.307535,vicon,object name,0.9250629119083739,1.0374920772187577,1.0,2.053331053656008,1.0,2.0,3.8536793773474183,"1685117,","-0.06,","0.06,","-1.00,","8.05,","6.71,","-13.78,","10.80,","70.67,",-51.16,"1685127,","-0.05,","0.05,","-1.01,","12.62,","5.06,","-11.10,","11.25,","72.92,",-50.71,63351,1602597237.313768,1234,0.3388735008079591,1.877615780621926,2.7598801630790657,0.06895644258789846,1.54540665804086,2.4593748441168457,0.6575741443320187,1.9568909028106654,2.2637707112624024,63343,1602597237.313768,4321,0.9489991664886475,1.4184083938598633,2.490414619445801,3.2027668952941895,4.235727787017822,5.639709949493408
,,155357.337735,0.12209272384643555,44167,1602597237.327545,vicon,object name,0.1539250898426241,1.2800866145266498,1.0,2.074317707930228,1.0,2.0,3.187389527394646,"1685136,","-0.05,","0.02,","-1.04,","11.71,","6.83,","-10.12,","12.30,","71.42,",-50.71,"1685146,","-0.08,","0.04,","-1.08,","11.28,","11.95,","-16.10,","13.05,","71.42,",-50.41,63353,1602597237.333709,1234,0.13608770637144896,1.820221962464121,2.4893499452782435,0.7223302271321675,1.6184318281620973,2.098949309467628,0.9012410164083884,1.3501903408951907,2.3600878143918127,63345,1602597237.333709,4321,0.8909125328063965,1.8334405422210693,2.5155162811279297,3.3369243144989014,4.565771102905273,5.591973304748535
,,155357.357808,0.14218759536743164,44169,1602597237.347574,vicon,object name,0.9645000653204031,1.9721533023952833,1.0,2.3214627171285005,1.0,2.0,3.2575629405595254,"1685156,","-0.10,","0.06,","-1.11,","8.29,","16.95,","-21.89,","12.00,","71.42,",-50.71,"1685165,","-0.14,","0.07,","-1.09,","13.60,","14.51,","-27.80,","13.65,","72.02,",-50.56,63355,1602597237.353879,1234,0.4560464115482493,1.1816017856111696,2.5230573610348594,0.013996338843627276,1.037891631607582,2.9895748682599685,0.02053059892846687,1.5622182149237485,2.0863315667660123,63347,1602597237.353879,4321,0.48753821849823,1.9525539875030518,2.1768529415130615,3.0877585411071777,4.723678112030029,5.481796741485596
,,155357.377743,0.16209697723388672,44171,1602597237.36761,vicon,object name,0.9175528166369463,1.3317295324396934,1.0,2.259641166498805,1.0,2.0,3.8633628214973736,"1685219,","-0.12,","0.06,","-1.09,","27.68,","11.16,","-34.15,","17.40,","75.17,",-48.46,"1685229,","-0.09,","-0.03,","-1.03,","34.21,","10.85,","-33.66,","15.90,","75.77,",-47.71,63357,1602597237.373859,1234,0.8834979370040871,1.9143516605929036,2.6133018200632168,0.47392328798124694,1.6998411077243283,2.796662292107345,0.9697783911799585,1.4655139910007473,2.040879417762401,63349,1602597237.373859,4321,0.7567812204360962,1.043341040611267,2.5076029300689697,3.0368213653564453,4.179032802581787,5.5344767570495605
,,155357.398164,0.18252801895141602,44173,1602597237.387591,vicon,object name,0.9460955636917188,1.3512819148070947,1.0,2.788709123479793,1.0,2.0,3.691506794991422,"1685240,","-0.12,","-0.08,","-0.97,","29.51,","5.24,","-30.55,","15.00,","74.87,",-48.16,"1685250,","-0.08,","-0.01,","-1.08,","40.37,","1.46,","-37.01,","14.70,","76.22,",-47.11,63359,1602597237.393884,1234,0.7260303805920069,1.4523552514353184,2.1648544687842524,0.8630159213328672,1.660217924530781,2.0482391784167606,0.32595281494483763,1.5961196380766984,2.290129432815318,63351,1602597237.393884,4321,0.5723680257797241,1.3775852918624878,2.6233179569244385,3.520453453063965,4.859507083892822,5.179636478424072
,,155357.418128,0.20248723030090332,44175,1602597237.407657,vicon,object name,0.24105420028006042,1.509650914703112,1.0,2.9999114378876377,1.0,2.0,3.5493575441461167,"1685260,","-0.07,","-0.00,","-1.00,","41.22,","11.28,","-36.46,","14.25,","77.27,",-45.16,"1685270,","-0.11,","-0.01,","-1.16,","43.17,","1.34,","-28.60,","12.90,","77.27,",-44.86,63361,1602597237.413723,1234,0.8274049526403711,1.1915695545403167,2.9159786403624115,0.009921759164243094,1.5883525340056432,2.4341920679335245,0.6419991919911638,1.3360799308409494,2.72487461928424,63353,1602597237.413723,4321,0.8722472190856934,1.3559348583221436,2.423840284347534,3.848659038543701,4.93906307220459,5.612584590911865
,,155357.438173,0.22252917289733887,44177,1602597237.427604,vicon,object name,0.4711304096139465,1.283055547359583,1.0,2.4946899836914733,1.0,2.0,3.844812769665683,"1685280,","-0.07,","0.00,","-1.21,","56.28,","-0.43,","-30.00,","13.05,","78.47,",-46.36,"1685291,","-0.11,","-0.19,","-1.18,","70.18,","-1.71,","-31.10,","13.80,","77.42,",-45.91,63363,1602597237.433858,1234,0.08083403063021766,1.0342918946085944,2.382855263201968,0.7115725617450555,1.4916819018965684,2.984255756689255,0.4694873249923196,1.682869239122998,2.579768699502892,63355,1602597237.433858,4321,0.5338025093078613,1.976626992225647,2.016819953918457,3.347212076187134,4.7743144035339355,5.661433219909668
,,155357.457977,0.24233222007751465,44179,1602597237.447643,vicon,object name,0.6984598403269177,1.1970415207169363,1.0,2.421479575356807,1.0,2.0,3.279074402375353,"1685301,","-0.16,","-0.32,","-1.39,","81.95,","-27.26,","-25.73,","11.10,","80.12,",-45.16,"1685311,","-0.08,","-0.25,","-1.54,","85.98,","-28.72,","-26.65,","10.95,","78.47,",-43.96,63365,1602597237.453733,1234,0.547935547099576,1.1411886690974478,2.325346093990032,0.7788238344246099,1.1130970333114218,2.519264459299909,0.27927262474743075,1.2735281563211056,2.204757206546574,63357,1602597237.453733,4321,0.9701270461082458,1.339486837387085,2.8426616191864014,3.8457236289978027,4.612049102783203,5.583726406097412
,,155357.47792,0.26227569580078125,44181,1602597237.467564,vicon,object name,0.3024165315659353,1.2188862247130132,1.0,2.254650406544531,1.0,2.0,3.985104435703863,"1685321,","-0.08,","-0.35,","-1.69,","110.18,","-48.23,","-19.15,","9.00,","79.37,",-43.81,"1685331,","-0.03,","-0.40,","-1.82,","108.78,","-56.34,","-3.41,","6.00,","79.22,",-42.91,63367,1602597237.47374,1234,0.007064347707145258,1.7167119252017256,2.3043844638278226,0.6244732150697067,1.5183389290750324,2.5776707987242333,0.6453367025951484,1.135256086207859,2.7700517393531285,63359,1602597237.47374,4321,0.42819228768348694,1.4190027713775635,2.7690913677215576,3.8186373710632324,4.637506008148193,5.3158745765686035
,,155357.498281,0.2826371192932129,44183,1602597237.48757,vicon,object name,0.925667176239735,1.5006243488098863,1.0,2.3372018126757914,1.0,2.0,3.6370321184029066,"1685342,","-0.05,","-0.40,","-1.80,","117.26,","-64.88,","8.72,","6.30,","80.87,",-42.76,"1685399,","0.15,","-0.55,","-1.70,","117.38,","-65.49,","20.55,","2.85,","76.37,",-43.21,63369,1602597237.493798,1234,0.6908755689443936,1.6653373345414644,2.2266308367808882,0.04019967660925727,1.639123240388162,2.2051418250267893,0.29855945081281854,1.433386079881593,2.8372642862624717,63361,1602597237.493798,4321,0.6618563532829285,1.8381538391113281,2.5290634632110596,3.460148334503174,4.397093296051025,5.21504545211792
,,155357.518148,0.302504301071167,44185,1602597237.507608,vicon,object name,0.6521402131500788,1.2748830953797947,1.0,2.691962336734591,1.0,2.0,3.5581529551130733,"1685409,","0.13,","-0.52,","-1.59,","103.23,","-62.56,","22.26,","3.15,","76.97,",-43.36,"1685419,","0.17,","-0.48,","-1.30,","92.80,","-72.26,","16.65,","4.65,","77.87,",-44.26,63371,1602597237.513766,1234,0.0020557218003364186,1.6756920967238758,2.815332391358323,0.8542737973803721,1.2410524246592676,2.163056133801625,0.2683828726971649,1.6082150218290971,2.039776885872527,63363,1602597237.513766,4321,0.2054794877767563,1.9591145515441895,2.1071064472198486,3.53330397605896,4.15389347076416,5.157673358917236
,,155357.538146,0.32250165939331055,44187,1602597237.527613,vicon,object name,0.7230399545460346,1.9923768306346448,1.0,2.536800249424254,1.0,2.0,3.0768181892958997,"1685429,","0.10,","-0.50,","-1.23,","72.26,","-97.50,","18.05,","5.70,","77.12,",-45.91,"1685439,","-0.01,","-0.34,","-1.05,","42.74,","-100.37,","27.07,","7.65,","76.97,",-44.11,63373,1602597237.533868,1234,0.4991369113804949,1.143810399329306,2.669539354614893,0.7276890654252188,1.0569558098199754,2.51530317980608,0.9043374608895722,1.3372125700148736,2.150343685399509,63365,1602597237.533868,4321,0.41974589228630066,1.5511841773986816,2.9334981441497803,3.7687058448791504,4.521810054779053,5.7133026123046875
,,155357.557967,0.34232330322265625,44189,1602597237.547652,vicon,object name,0.5807673107666734,1.430899787435617,1.0,2.6527352006610134,1.0,2.0,3.5971698500122917,"1685450,","-0.03,","-0.30,","-0.88,","-0.79,","-93.48,","44.51,","8.85,","77.12,",-44.26,"1685460,","-0.10,","-0.27,","-0.77,","-35.98,","-82.38,","56.34,","9.45,","79.07,",-45.76,63375,1602597237.553778,1234,0.3231389124791916,1.8124948603435513,2.504087198813644,0.4115626607410596,1.3631529709630286,2.3249588102208025,0.4761735684315359,1.6740918183963465,2.9728551871102553,63367,1602597237.553778,4321,0.06570214033126831,1.1513456106185913,2.7272415161132812,3.745182514190674,4.893256664276123,5.137137413024902
,,155357.579973,0.36432838439941406,44192,1602597237.577596,vicon,object name,0.3065705310989182,1.3218083737833577,1.0,2.653433334583286,1.0,2.0,3.3790924803218543,"1685470,","-0.24,","-0.13,","-0.74,","-56.34,","-84.27,","64.45,","10.50,","79.82,",-44.41,"1685480,","-0.26,","0.03,","-0.61,","-56.95,","-88.41,","71.34,","10.80,","79.37,",-43.81,63377,1602597237.573863,1234,0.3299682779876708,1.6447105720783832,2.4515798540766722,0.19150092449709666,1.3189185030858368,2.730341018470262,0.6777603570424554,1.6824703526220572,2.1194039519292844,63369,1602597237.573863,4321,0.02930603176355362,1.9150224924087524,2.2221732139587402,3.6945791244506836,4.605592250823975,5.352442741394043
,,155357.598142,0.38249683380126953,44193,1602597237.58758,vicon,object name,0.4754264939087679,1.6279548361148946,1.0,2.8370774132159213,1.0,2.0,3.0996215823051054,"1685491,","-0.28,","0.07,","-0.42,","-59.70,","-95.61,","84.94,","12.75,","81.02,",-42.31,"1685501,","-0.25,","0.07,","-0.27,","-85.73,","-106.22,","110.61,","13.95,","80.87,",-41.41,63379,1602597237.593858,1234,0.3375373395807121,1.449766858501424,2.8613475093787883,0.39600321309651554,1.770159825359368,2.4428367530379855,0.8048835339328139,1.7734349068026012,2.7350099775776293,63371,1602597237.593858,4321,0.9426771998405457,1.7323565483093262,2.0554418563842773,3.777773857116699,4.435978412628174,5.047832489013672
,,155357.618564,0.4029223918914795,44195,1602597237.607598,vicon,object name,0.39613569157221373,1.382277249913158,1.0,2.086004357855381,1.0,2.0,3.490344485824782,"1685511,","0.01,","0.52,","0.16,","-108.48,","-104.76,","128.90,","13.95,","81.17,",-41.11,"1685522,","0.05,","1.03,","0.69,","-147.38,","-90.73,","135.00,","17.40,","82.22,",-39.76,63381,1602597237.613871,1234,0.92122163030055,1.4063672733626982,2.1063009548858362,0.4776282420295175,1.1113137522149423,2.5722573329759344,0.9881333085273675,1.6354243538673363,2.3354077269438602,63373,1602597237.613871,4321,0.580699622631073,1.3387256860733032,2.8459272384643555,3.9552841186523438,4.536768436431885,5.539175033569336
,,155357.638194,0.422565221786499,44197,1602597237.627568,vicon,object name,0.6796172478390561,1.4306075049908675,1.0,2.6888632431096062,1.0,2.0,3.00266153745923,"1685580,","0.15,","1.43,","0.72,","-223.35,","-77.80,","110.79,","14.70,","84.62,",-37.06,"1685590,","0.08,","1.29,","0.35,","-312.07,","-39.09,","75.79,","13.20,","85.07,",-36.61,63382,1602597237.623869,1234,0.1033280203017638,1.6750889352892706,2.8412593555976353,0.02322011612046948,1.231192334867034,2.518738255403173,0.2817892020304442,1.9219276799906209,2.4564108647612897,63374,1602597237.623869,4321,0.5822616219520569,1.3696799278259277,2.1935577392578125,3.747053623199463,4.422910213470459,5.108513355255127
,,155357.658024,0.4423844814300537,44199,1602597237.647562,vicon,object name,0.13116789113192284,1.0216748171507488,1.0,2.415000096397919,1.0,2.0,3.737676613275357,"1685600,","-0.03,","0.79,","-0.08,","-383.35,","14.21,","64.15,","9.75,","82.97,",-37.36,"1685611,","-0.04,","0.70,","-0.24,","-374.51,","65.06,","51.59,","7.65,","82.22,",-37.36,63385,1602597237.653764,1234,0.6527621424279577,1.3995898657328474,2.5570087863606688,0.7168527894167067,1.659212959175685,2.1910283222694433,0.6426284335625393,1.112626585925202,2.6980628024807807,63377,1602597237.653764,4321,0.21169908344745636,1.2296861410140991,2.969083786010742,3.5841307640075684,4.702096939086914,5.815399646759033
,,155357.677997,0.4623591899871826,44201,1602597237.667603,vicon,object name,0.6892685623127089,1.6674273530937687,1.0,2.7428439977724537,1.0,2.0,3.841448775683351,"1685621,","-0.01,","0.58,","-0.33,","-286.34,","94.09,","29.02,","5.40,","81.32,",-38.26,"1685631,","-0.05,","0.35,","-0.58,","-168.11,","114.70,","-2.80,","3.90,","82.37,",-37.81,63387,1602597237.673732,1234,0.268695957972533,1.406891082705011,2.5954293874657024,0.4491115169969284,1.9291864636986893,2.1982567917548237,0.05378380338206179,1.9244331111977346,2.5529087328439473,63379,1602597237.673732,4321,0.7565127611160278,1.2711137533187866,2.4326181411743164,3.2870571613311768,4.282842636108398,5.0202460289001465
,,155357.698027,0.48238253593444824,44203,1602597237.687563,vicon,object name,0.8415699589329824,1.7368551707279232,1.0,2.455245407410509,1.0,2.0,3.131161343344398,"1685641,","-0.27,","-0.06,","-1.29,","-52.26,","120.43,","-29.57,","2.25,","81.62,",-37.21,"1685651,","-0.29,","-0.08,","-1.86,","55.49,","112.44,","-52.13,","-0.90,","78.92,",-37.21,63389,1602597237.693852,1234,0.21677477911850307,1.4089847794389612,2.8855186340123806,0.9230313104876162,1.359754578801758,2.7958846774445707,0.7410663941165564,1.2556692037723245,2.4259254757449242,63381,1602597237.693852,4321,0.8445078730583191,1.169324278831482,2.9430887699127197,3.5100040435791016,4.88974666595459,5.321722507476807
,,155357.717973,0.502328634262085,44205,1602597237.707559,vicon,object name,0.29364299112235503,1.3878331321693582,1.0,2.9359125002237985,1.0,2.0,3.020724450816545,"1685662,","-0.18,","-0.26,","-2.00,","149.94,","83.78,","-70.55,","2.55,","80.27,",-37.81,"1685672,","-0.06,","-0.41,","-2.00,","196.22,","23.41,","-78.60,","3.60,","81.02,",-39.61,63391,1602597237.713724,1234,0.31479746379568097,1.0115157570421998,2.047247380835924,0.45165886538952393,1.7818887815820634,2.1276474507488903,0.9805140250839609,1.1305660128279746,2.4388114112650374,63383,1602597237.713724,4321,0.06392323970794678,1.9314301013946533,2.57191801071167,3.2604353427886963,4.758580684661865,5.492475509643555
,,155357.738149,0.522505521774292,44207,1602597237.727558,vicon,object name,0.8141334733856594,1.1110204787503846,1.0,2.925955579593565,1.0,2.0,3.563819281035564,"1685682,","0.09,","-0.50,","-2.61,","200.49,","-40.79,","-75.18,","5.85,","83.57,",-37.96,"1685692,","-0.28,","-0.54,","-1.60,","244.45,","11.04,","-76.10,","8.10,","81.02,",-38.26,63393,1602597237.73375,1234,0.9358695488848409,1.3542576507342117,2.7693724799109742,0.7734827117949783,1.3446240392334066,2.106491495391741,0.6477701244039901,1.7693857615125035,2.227678170285747,63385,1602597237.73375,4321,0.6992787718772888,1.6461809873580933,2.683256149291992,3.232503652572632,4.465069770812988,5.621183395385742
,,155357.759239,0.5435986518859863,44209,1602597237.747598,vicon,object name,0.5267065490387557,1.9288005894040616,1.0,2.5528254055067183,1.0,2.0,3.139694445410539,"1685702,","-0.11,","-0.68,","-1.79,","197.38,","-120.85,","-0.91,","10.05,","84.02,",-38.71,"1685760,","-0.25,","15.92,","5.39,","-62.07,","746.04,","-1106.65,","22.21,","83.42,",-33.16,63395,1602597237.753851,1234,0.2052240219862641,1.091743561168593,2.4547909019800014,0.5751077750982746,1.4199749065950593,2.2243688321658115,0.675375197114205,1.0119470847854144,2.047487570693534,63387,1602597237.753851,4321,0.05718943849205971,1.1110399961471558,2.018582582473755,3.976740837097168,4.830784797668457,5.852039813995361
,,155357.778546,0.5629045963287354,44211,1602597237.767621,vicon,object name,0.906055946320716,1.1611967103455254,1.0,2.2807535270104085,1.0,2.0,3.8828915393761343,"1685833,","-0.41,","0.30,","-1.04,","-713.05,","138.78,","196.59,","3.30,","82.37,",-37.21,"1685844,","-0.45,","0.16,","-0.95,","-647.13,","124.70,","179.82,","-0.75,","81.47,",-36.01,63397,1602597237.773802,1234,0.6868359016232543,1.5625917677723837,2.2584856902002617,0.20813967675316492,1.0551871549348146,2.6300518756991593,0.7909553403985611,1.429409938652943,2.429402756555235,63389,1602597237.773802,4321,0.8529649972915649,1.0678184032440186,2.9068760871887207,3.745290756225586,4.477483749389648,5.740314960479736
,,155357.798523,0.5828819274902344,44213,1602597237.7876,vicon,object name,0.7616986729560723,1.3833475251318554,1.0,2.250582407094884,1.0,2.0,3.614636785756986,"1685854,","-0.46,","0.35,","-0.88,","-486.52,","89.39,","138.96,","-1.35,","81.32,",-34.06,"1685863,","-0.49,","0.38,","-0.84,","-253.60,","43.72,","82.99,","-4.50,","80.27,",-34.81,63399,1602597237.793772,1234,0.027505039001642695,1.2174592335476877,2.142943642536435,0.17282333642045578,1.5717025182728803,2.8140651153180123,0.008666398556092414,1.6393332691180982,2.8381014458799223,63391,1602597237.793772,4321,0.9923930764198303,1.7865394353866577,2.209800958633423,3.408276081085205,4.552507400512695,5.321866035461426
,,155357.81872,0.603079080581665,44215,1602597237.807576,vicon,object name,0.21133256959733193,1.944785542095864,1.0,2.9666245042369908,1.0,2.0,3.7295345850525945,"1685873,","-0.36,","0.68,","-0.92,","22.44,","-6.89,","1.71,","-5.10,","80.57,",-36.46,"1689133,","-0.46,","0.16,","0.01,","-102.93,","-41.16,","56.83,","10.50,","72.32,",-50.56,63401,1602597237.813748,1234,0.34202704479749757,1.011523507915837,2.848446694847124,0.010907965733005898,1.9166311246175973,2.8609230982337697,0.9173608826832252,1.7917237739245822,2.7179999133263837,63393,1602597237.813748,4321,0.25686439871788025,1.1619973182678223,2.2646613121032715,3.0471150875091553,4.319819927215576,5.733017444610596
,,155357.838942,0.6233024597167969,44217,1602597237.827584,vicon,object name,0.11570913996235077,1.6499809699213082,1.0,2.942415641282383,1.0,2.0,3.3389366842220203,"1689143,","-0.57,","0.30,","0.34,","-133.78,","-19.21,","59.45,","8.85,","72.47,",-50.41,"1689153,","-0.64,","0.55,","0.70,","-177.07,","26.95,","47.32,","9.15,","72.92,",-49.36,63403,1602597237.833738,1234,0.22362859461423867,1.0360684403364506,2.3965180536594417,0.900707557604971,1.515489554763224,2.474080352222414,0.8411754954942783,1.934997289305651,2.0034380113604264,63395,1602597237.833738,4321,0.9959330558776855,1.6631317138671875,2.3525240421295166,3.6424460411071777,4.070077896118164,5.544211387634277
,,155357.860798,0.6451578140258789,44220,1602597237.857637,vicon,object name,0.018879927613082215,1.2340051290079046,1.0,2.282958076006628,1.0,2.0,3.777080009160446,"1689162,","-0.63,","0.91,","1.03,","-227.74,","104.76,","22.74,","10.65,","71.12,",-50.71,"1689172,","-0.58,","1.33,","1.27,","-241.10,","205.43,","1.10,","9.00,","70.22,",-49.51,63405,1602597237.853849,1234,0.7196994071184242,1.0706510223515227,2.875365872262214,0.8206389913893619,1.9285611223345955,2.0967595342449523,0.9955671273796406,1.6671355379142232,2.737776991352047,63397,1602597237.853849,4321,0.2841005027294159,1.3556432723999023,2.9734537601470947,3.3303065299987793,4.409815311431885,5.377639293670654
,,155357.878748,0.66310715675354,44221,1602597237.86761,vicon,object name,0.8305112530337155,1.627076705278327,1.0,2.392638684911713,1.0,2.0,3.4484064640955134,"1689182,","-0.47,","1.45,","1.61,","-157.56,","299.57,","-10.61,","10.05,","70.22,",-51.91,"1689191,","-0.21,","1.26,","1.70,","-11.46,","376.77,","-6.16,","9.45,","71.72,",-50.86,63407,1602597237.87379,1234,0.5858090422377171,1.8355796453998634,2.3259158141622924,0.1134329470508244,1.3128251875988903,2.3525507957784932,0.1853247422037031,1.3077827272572051,2.876267979360001,63399,1602597237.87379,4321,0.7069925665855408,1.6464977264404297,2.3862736225128174,3.1692559719085693,4.014739990234375,5.167270183563232
,,155357.898602,0.6829609870910645,44223,1602597237.887629,vicon,object name,0.8237518744936121,1.394259875290522,1.0,2.3970485085005446,1.0,2.0,3.290740812194631,"1689201,","0.24,","0.72,","1.02,","183.35,","430.00,","25.37,","8.55,","72.92,",-50.41,"1689211,","1.05,","-0.06,","-1.05,","453.48,","422.56,","73.96,","8.55,","72.92,",-50.41,63409,1602597237.893789,1234,0.35095937218347395,1.62192052061327,2.2252407775061913,0.6932421785035517,1.3047142587445517,2.007070418057356,0.06109923958305152,1.185460507060294,2.2245887287919714,63401,1602597237.893789,4321,0.30084341764450073,1.5110414028167725,2.014580488204956,3.9872660636901855,4.360710144042969,5.556999683380127
,,155357.945161,0.7295207977294922,44228,1602597237.937565,vicon,object name,0.25256730906510905,1.8265083060671095,1.0,2.3940904213061156,1.0,2.0,3.8429947612276427,"1689220,","1.86,","0.17,","-3.28,","625.18,","362.99,","57.50,","10.05,","72.32,",-48.16,"1689278,","1.86,","0.12,","-3.15,","610.85,","221.34,","-47.20,","11.25,","73.22,",-49.36,63413,1602597237.933855,1234,0.43638555703624426,1.418331309195453,2.8506764319761393,0.9850794304055124,1.555008354951666,2.308843738282113,0.34971859210989753,1.2117654311616182,2.204004086373638,63405,1602597237.933855,4321,0.23863601684570312,1.598302960395813,2.9049246311187744,3.290085554122925,4.674004554748535,5.0587849617004395
,,155357.965891,0.7502808570861816,44230,1602597237.957639,vicon,object name,0.8826741266784377,1.6706065881997425,1.0,2.582143711977836,1.0,2.0,3.115614700174502,"1689288,","1.12,","-0.80,","-2.53,","441.16,","124.57,","-188.29,","11.85,","74.42,",-48.16,"1689299,","0.66,","-1.38,","-2.20,","146.28,","145.91,","-284.09,","10.65,","73.97,",-49.06,63415,1602597237.95374,1234,0.2681788346610695,1.9375374343260636,2.4303193486079184,0.20383798031546507,1.1458034696625456,2.806309434102097,0.5195229658686565,1.7245540485877175,2.723335242738257,63407,1602597237.95374,4321,0.3088655173778534,1.750264286994934,2.9337501525878906,3.8472201824188232,4.909268856048584,5.553699970245361
,,155357.986481,0.7708456516265869,44232,1602597237.977577,vicon,object name,0.18630670170631136,1.529116717000923,1.0,2.6032057732912897,1.0,2.0,3.0991299130493477,"1689309,","0.33,","-1.37,","-3.04,","-86.95,","144.33,","-284.82,","10.05,","74.12,",-50.56,"1689319,","-0.44,","-1.54,","-1.98,","-128.78,","12.80,","-162.13,","11.70,","73.67,",-49.36,63417,1602597237.973768,1234,0.7995249140241942,1.118999812676236,2.8680921204004015,0.8459048706710802,1.4485574440714264,2.0957318780144982,0.5611932811827121,1.4247973906972284,2.3172302006203473,63409,1602597237.973768,4321,0.26244068145751953,1.8206301927566528,2.9895763397216797,3.1307952404022217,4.867427825927734,5.096022605895996
,,155358.007074,0.7914383411407471,44234,1602597237.997603,vicon,object name,0.23048216714991254,1.6689226879088699,1.0,2.9741611713763163,1.0,2.0,3.202386885082012,"1689330,","-0.17,","-0.73,","-1.37,","-115.98,","42.87,","-78.11,","11.10,","73.07,",-48.91,"1689340,","-0.03,","-0.30,","-1.55,","-119.51,","82.13,","-43.66,","10.05,","73.07,",-49.51,63419,1602597237.993731,1234,0.2005089146258322,1.325789317488764,2.6361805383288766,0.34754512645344615,1.1432469756498025,2.538372630600615,0.18363836083481733,1.118768851182376,2.0392847697951177,63411,1602597237.993731,4321,0.7475457787513733,1.642234206199646,2.444441795349121,3.7028236389160156,4.673022270202637,5.828530788421631
,,155358.027364,0.8117289543151855,44236,1602597238.17603,vicon,object name,0.9321454637648621,1.5496253114921896,1.0,2.7707097931337055,1.0,2.0,3.972544075530821,"1689350,","-0.01,","-0.08,","-1.36,","-72.44,","81.95,","-25.49,","11.25,","72.92,",-49.66,"1689360,","0.06,","0.10,","-1.11,","-33.17,","54.63,","-18.29,","12.75,","73.67,",-50.11,63421,1602597238.13741,1234,0.604135621902604,1.1026563211226017,2.196240049380779,0.0431210432111333,1.5107920665510908,2.0327085271542775,0.3080052744277313,1.3947107904007763,2.9057181997372283,63413,1602597238.13741,4321,0.03653254732489586,1.1470956802368164,2.8637144565582275,3.4387049674987793,4.524048805236816,5.14310884475708
,,155358.048056,0.8324201107025146,44238,1602597238.37594,vicon,object name,0.9070318818268455,1.1185057007532633,1.0,2.265071277836168,1.0,2.0,3.4965672860118318,"1689371,","-0.17,","0.56,","-2.14,","3.17,","-95.85,","-12.20,","10.05,","72.77,",-50.26,"1689381,","-0.67,","0.87,","-1.25,","76.34,","-56.83,","-19.21,","11.10,","74.42,",-48.91,63423,1602597238.33746,1234,0.801057860109864,1.8604443185141433,2.208338872758577,0.6203644470044658,1.247654294897802,2.3813078333670923,0.44365332889092013,1.398922822673896,2.4463543356308977,63415,1602597238.33746,4321,0.7823410630226135,1.2028987407684326,2.9818406105041504,3.0551390647888184,4.446822166442871,5.520101547241211
,,155358.068449,0.8528091907501221,44240,1602597238.57597,vicon,object name,0.5111952890585786,1.3573504053608856,1.0,2.580321286355287,1.0,2.0,3.1223258529170477,"1689391,","-0.24,","0.03,","-1.05,","15.98,","34.21,","-15.30,","9.90,","73.22,",-49.66,"1689401,","0.07,","0.18,","-1.11,","21.40,","-13.72,","16.65,","10.80,","73.37,",-49.21,63426,1602597238.6374,1234,0.044821633612695644,1.4918219694284098,2.4900351294739727,0.4562505713966263,1.7256296737413739,2.928612332107835,0.6782502778869152,1.4244139570321428,2.7329457585432517,63418,1602597238.6374,4321,0.5795180201530457,1.1464446783065796,2.553309202194214,3.050309658050537,4.93710994720459,5.945047855377197
,,155358.137738,0.9221022129058838,44247,1602597238.127654,vicon,object name,0.2653025764178617,1.0476685061409303,1.0,2.401405883609062,1.0,2.0,3.9598923213826156,"1689460,","0.09,","0.32,","-0.99,","49.39,","-58.84,","31.10,","12.60,","73.37,",-49.21,"1689471,","0.08,","0.19,","-0.98,","35.67,","-49.51,","11.71,","11.55,","73.82,",-50.11,63432,1602597238.12384,1234,0.7131621429538145,1.0407402628691775,2.9094421682090523,0.5193190818163261,1.7334281320747542,2.9996176978969973,0.9523403307471132,1.0027966028811295,2.535856936273839,63424,1602597238.12384,4321,0.7487043738365173,1.3995798826217651,2.1616909503936768,3.6899116039276123,4.359736442565918,5.3151373863220215
,,155358.157965,0.9423313140869141,44249,1602597238.147606,vicon,object name,0.4121283193045441,1.9030219566275095,1.0,2.5639533358445226,1.0,2.0,3.3112953157142524,"1689481,","-0.09,","-0.00,","-0.93,","12.68,","-31.83,","-3.60,","12.15,","74.42,",-50.26,"1689491,","-0.04,","-0.03,","-0.90,","-0.79,","-35.67,","-4.63,","11.85,","72.02,",-49.81,63434,1602597238.143804,1234,0.1615885309111671,1.9759702711204776,2.9822032110132715,0.955627051126142,1.8496769036798584,2.270375505672507,0.8822430276939954,1.9345326232021458,2.6449131984297765,63426,1602597238.143804,4321,0.9489896297454834,1.7453862428665161,2.196941375732422,3.5635154247283936,4.064939975738525,5.148995399475098
,,155358.178565,0.9629247188568115,44251,1602597238.167659,vicon,object name,0.2322902581804459,1.8614809561107206,1.0,2.385799935820793,1.0,2.0,3.3313386445157613,"1689501,","-0.06,","0.01,","-0.88,","4.88,","-40.24,","-1.95,","13.05,","71.87,",-50.11,"1689511,","-0.06,","-0.01,","-0.87,","10.98,","-30.85,","-5.18,","11.55,","71.72,",-50.56,63437,1602597238.173812,1234,0.16574587772199534,1.1808192920958938,2.530944810067103,0.8669628295868804,1.0174667824684023,2.4420659295594076,0.10016851142891636,1.9912907990589992,2.4945031327669143,63429,1602597238.173812,4321,0.35896721482276917,1.741721272468567,2.571244955062866,3.0525500774383545,4.722012042999268,5.293344497680664
,,155358.198844,0.9832088947296143,44253,1602597238.187587,vicon,object name,0.5359686194887012,1.7244761092803085,1.0,2.839713707611226,1.0,2.0,3.944843146671245,"1689522,","-0.09,","-0.07,","-0.85,","13.78,","-11.83,","-9.15,","12.30,","72.47,",-50.11,"1689532,","-0.10,","-0.10,","-0.86,","15.30,","3.54,","-8.54,","12.75,","72.17,",-50.71,63439,1602597238.193783,1234,0.798956471543141,1.0389073783346539,2.482649735757514,0.5907555677615058,1.5289593103585162,2.178626319653074,0.8366672774603438,1.2859342813712868,2.813984741899214,63431,1602597238.193783,4321,0.8992354273796082,1.9946638345718384,2.895674467086792,3.943742036819458,4.75625467300415,5.726541996002197
,,155358.219038,1.0034003257751465,44255,1602597238.207625,vicon,object name,0.767509951592504,1.3334512670035779,1.0,2.809548296216991,1.0,2.0,3.806615500233647,"1689542,","-0.07,","-0.07,","-0.80,","21.52,","9.82,","-2.32,","12.75,","71.42,",-50.71,"1689552,","-0.04,","-0.00,","-0.78,","19.21,","11.71,","3.23,","13.05,","71.87,",-50.41,63441,1602597238.213845,1234,0.5260473949923564,1.3840138432181226,2.093443915990965,0.06671626226184468,1.0205026367024868,2.7084860060695894,0.2742162913256415,1.9030382527666716,2.9712342479817933,63433,1602597238.213845,4321,0.7208194136619568,1.6785882711410522,2.0785953998565674,3.868896722793579,4.487191200256348,5.864726543426514
,,155358.239563,1.0239250659942627,44257,1602597238.227605,vicon,object name,0.49434306363447644,1.2206836774651662,1.0,2.2683144217107625,1.0,2.0,3.5305144310385876,"1689562,","-0.03,","0.01,","-0.84,","11.71,","12.38,","6.10,","12.60,","72.02,",-50.56,"1689572,","-0.00,","0.06,","-0.87,","12.93,","9.51,","8.29,","13.65,","71.27,",-52.21,63443,1602597238.233835,1234,0.49423195992905866,1.4343879036144516,2.435843580064234,0.6768929981001393,1.6704578745189753,2.4924030324833333,0.04533195924305611,1.9155714959909167,2.944192473018256,63435,1602597238.233835,4321,0.9539878368377686,1.973474383354187,2.9816484451293945,3.7869675159454346,4.844721794128418,5.8701558113098145
,,155358.259269,1.0436301231384277,44259,1602597238.247624,vicon,object name,0.8104667027333646,1.616607125846707,1.0,2.6341082585869073,1.0,2.0,3.093105381875364,"1689582,","0.04,","0.12,","-0.89,","21.04,","6.95,","9.82,","12.30,","70.37,",-51.76,"1689592,","0.05,","0.13,","-0.93,","33.05,","-2.07,","9.82,","12.30,","69.77,",-51.46,63445,1602597238.253788,1234,0.11877187057701999,1.2944957179574486,2.768688296716998,0.12281431325764958,1.0749241245671552,2.362773808699414,0.4989340911829778,1.8301092286909042,2.61857960385389,63437,1602597238.253788,4321,0.17107148468494415,1.9540337324142456,2.968163251876831,3.2782301902770996,4.991916179656982,5.434023857116699
,,155358.327434,1.1117942333221436,44266,1602597238.317613,vicon,object name,0.7910995823254553,1.4829225911994217,1.0,2.0784412696706234,1.0,2.0,3.7118987625279187,"1689650,","0.03,","0.08,","-0.92,","42.38,","-13.96,","7.26,","16.35,","66.32,",-52.21,"1689660,","-0.04,","-0.02,","-0.85,","45.18,","-19.15,","4.15,","15.45,","67.07,",-51.61,63451,1602597238.313857,1234,0.5999953276832852,1.4975695152966133,2.600145238958036,0.4201852569502973,1.84974479576716,2.1901434017320045,0.5556199543975773,1.7115825417258133,2.766093960920927,63443,1602597238.313857,4321,0.6701774001121521,1.1428033113479614,2.16156005859375,3.8641414642333984,4.544826507568359,5.8554606437683105
,,155358.347872,1.1322309970855713,44268,1602597238.337573,vicon,object name,0.5610933005273349,1.5835354995623736,1.0,2.737075683475954,1.0,2.0,3.700174016685666,"1689671,","-0.08,","-0.09,","-0.90,","32.99,","-14.70,","1.59,","16.05,","66.77,",-51.91,"1689681,","-0.09,","-0.13,","-0.94,","18.84,","-1.16,","-0.12,","14.70,","68.12,",-53.26,63454,1602597238.343791,1234,0.3404524600994441,1.3074120852272535,2.3027844804297457,0.8822757165046319,1.2497356381549571,2.3809746036462123,0.7237310738495666,1.9113170246377693,2.0555027283227307,63445,1602597238.333751,4321,0.8392168879508972,1.1505391597747803,2.5771186351776123,3.6085917949676514,4.38800048828125,5.544715404510498
,,155358.368324,1.1526825428009033,44270,1602597238.357683,vicon,object name,0.022257055968660677,1.7853012809947995,1.0,2.1918562568180358,1.0,2.0,3.1099627633292544,"1689691,","-0.08,","-0.13,","-0.95,","4.70,","11.71,","-0.61,","14.70,","68.87,",-52.96,"1689701,","-0.05,","-0.10,","-0.94,","-8.29,","19.76,","-1.10,","15.15,","69.32,",-54.16,63456,1602597238.363805,1234,0.599905927194437,1.520586891405843,2.5170874481363676,0.7527944077501861,1.0944022807030707,2.5691202632076413,0.8967467767719348,1.070202894351107,2.1697138960068685,63448,1602597238.363805,4321,0.8560715317726135,1.2427290678024292,2.55092191696167,3.4437384605407715,4.031059265136719,5.244969367980957
,,155358.388528,1.172888994216919,44272,1602597238.377662,vicon,object name,0.32918573116118544,1.5532597097436076,1.0,2.348148457917743,1.0,2.0,3.5033786484874154,"1689711,","-0.04,","-0.08,","-0.93,","-16.83,","26.77,","-1.16,","14.70,","69.92,",-52.51,"1689721,","0.12,","-0.08,","-0.85,","-16.22,","32.01,","0.06,","14.40,","70.82,",-51.46,63458,1602597238.38387,1234,0.5427333831174517,1.4627300829767445,2.5902983149146226,0.17144596711249815,1.7459962271330884,2.373947951510515,0.25493730632787825,1.875300581193338,2.482653558780851,63450,1602597238.38387,4321,0.9798334836959839,1.773682951927185,2.492711067199707,3.486107110977173,4.385663032531738,5.134866237640381
,,155358.40852,1.1928784847259521,44274,1602597238.397558,vicon,object name,0.12465019891302909,1.3451765567143816,1.0,2.0396299388129164,1.0,2.0,3.5988602009202126,"1689732,","0.10,","0.04,","-1.15,","-7.32,","1.28,","4.94,","15.30,","71.72,",-50.56,"1689742,","0.03,","0.02,","-1.01,","15.43,","-8.96,","6.04,","14.70,","73.37,",-48.91,63460,1602597238.403737,1234,0.35707371469367855,1.9241651011264882,2.0080069768426982,0.3496714077932792,1.2158664337788703,2.271371316401983,0.9690658386912082,1.2558089914101096,2.0387974646595977,63452,1602597238.403737,4321,0.04037195444107056,1.4133353233337402,2.228544235229492,3.8767967224121094,4.558108329772949,5.35101318359375
,,155358.428851,1.2132108211517334,44276,1602597238.417583,vicon,object name,0.7382134806585727,1.1016007193438149,1.0,2.961416014915847,1.0,2.0,3.945749957687032,"1689752,","-0.07,","-0.04,","-1.00,","22.32,","5.49,","4.94,","14.25,","74.87,",-49.81,"1689762,","-0.09,","-0.10,","-0.95,","24.88,","32.62,","8.05,","16.05,","74.12,",-50.86,63462,1602597238.42382,1234,0.5626767349808258,1.2515809330937593,2.4705281999117688,0.3116964998319033,1.3024199257607854,2.6256282690205923,0.777762167826138,1.2995463191015686,2.1327429088848935,63454,1602597238.42382,4321,0.3454835116863251,1.8968679904937744,2.5605738162994385,3.0787932872772217,4.400897979736328,5.347757339477539
,,155358.449518,1.233884334564209,44278,1602597238.437569,vicon,object name,0.5052925602386501,1.2045876389831862,1.0,2.7553722159800005,1.0,2.0,3.625560418308337,"1689772,","-0.02,","-0.06,","-0.97,","35.73,","38.54,","14.51,","14.10,","76.82,",-48.61,"1689782,","0.01,","-0.04,","-0.97,","57.80,","18.96,","22.62,","14.40,","73.67,",-48.31,63464,1602597238.443844,1234,0.37063531181457476,1.1479370935802284,2.1832246968475477,0.6994930400431835,1.9136395790919618,2.528073860576242,0.951928891356188,1.1008121051319821,2.4064485724029674,63456,1602597238.443844,4321,0.3698700964450836,1.681111454963684,2.828360080718994,3.0600075721740723,4.399616241455078,5.196306228637695
,,155358.51886,1.303220272064209,44285,1602597238.507546,vicon,object name,0.05982182272768399,1.8711732600633706,1.0,2.0315669416516005,1.0,2.0,3.0256711562207004,"1689842,","-0.05,","-0.16,","-0.86,","31.77,","24.45,","22.26,","12.75,","71.42,",-50.11,"1689852,","-0.07,","-0.13,","-1.07,","24.21,","-9.02,","31.04,","13.05,","70.07,",-54.16,63471,1602597238.513726,1234,0.9011352444210682,1.6294761094185661,2.0745296580461434,0.5587959178017408,1.5415721164252267,2.3416155065056183,0.08136373605212266,1.043203883133502,2.350308730930118,63463,1602597238.513726,4321,0.07642236351966858,1.9380463361740112,2.731180191040039,3.7748236656188965,4.039196491241455,5.494949817657471
,,155358.539268,1.3236274719238281,44287,1602597238.52761,vicon,object name,0.8716343827773407,1.7643238479441137,1.0,2.2775592431491867,1.0,2.0,3.825972683265675,"1689862,","-0.04,","-0.32,","-0.64,","37.07,","2.44,","43.54,","10.65,","68.72,",-54.16,"1689872,","-0.23,","-0.23,","-1.02,","21.89,","-19.21,","52.93,","7.65,","68.57,",-52.96,63473,1602597238.533853,1234,0.4001859233377911,1.2707242603017397,2.8896878635616146,0.702050314928364,1.2486681424020343,2.9811689585769696,0.5009847077609788,1.8290837528298356,2.6617941185863057,63465,1602597238.533853,4321,0.029146162793040276,1.1757022142410278,2.3283703327178955,3.836467742919922,4.32493257522583,5.811923027038574
,,155358.559954,1.3443305492401123,44289,1602597238.547641,vicon,object name,0.1995519972810813,1.7706248567886536,1.0,2.4434335837355063,1.0,2.0,3.654721180586834,"1689882,","-0.14,","-0.34,","-0.79,","37.13,","44.51,","65.79,","8.85,","69.77,",-52.81,"1689893,","-0.09,","-0.39,","-0.84,","46.46,","69.88,","83.84,","8.10,","68.72,",-51.46,63475,1602597238.553762,1234,0.5253128378879626,1.7259330531821666,2.070648541711364,0.3148091184903715,1.5215047560055595,2.576529139545568,0.2981680430821081,1.4274871410887564,2.250138312792556,63467,1602597238.553762,4321,0.21265745162963867,1.9843403100967407,2.1826868057250977,3.262226104736328,4.439227104187012,5.928164958953857
,,155358.580374,1.3647379875183105,44291,1602597238.567579,vicon,object name,0.4617062318496786,1.7900443665090604,1.0,2.7547762208612747,1.0,2.0,3.614910730826697,"1689903,","0.11,","-0.41,","-1.10,","72.44,","87.38,","99.39,","6.90,","69.92,",-52.21,"1689913,","0.50,","-0.32,","-1.37,","94.33,","89.33,","102.74,","8.10,","70.37,",-51.76,63477,1602597238.573782,1234,0.26800299869569655,1.4539795871113241,2.5869198967602873,0.06714771317461432,1.1572848232592516,2.0694926076463265,0.8445356290619569,1.9930309574975222,2.399475916999859,63469,1602597238.573782,4321,0.571711003780365,1.1440290212631226,2.7707107067108154,3.9689748287200928,4.979545593261719,5.035127639770508
,,155358.600569,1.3849289417266846,44294,1602597238.597643,vicon,object name,0.27266579464717144,1.1270719191348235,1.0,2.633742663371126,1.0,2.0,3.2859501640559854,"1689923,","0.53,","0.10,","-2.16,","114.76,","36.16,","85.67,","6.60,","72.02,",-51.16,"1689933,","0.40,","0.15,","-1.80,","153.35,","62.68,","62.13,","5.40,","71.87,",-51.01,63479,1602597238.593798,1234,0.06616286333087706,1.5153568324060196,2.3880856028549244,0.2938986828446084,1.5852774543150758,2.085204058282117,0.15613514372204762,1.6183492127660597,2.751504411189233,63471,1602597238.593798,4321,0.750965416431427,1.300424337387085,2.2764670848846436,3.412275791168213,4.975314617156982,5.586759567260742
,,155358.621066,1.4054293632507324,44296,1602597238.617573,vicon,object name,0.9549557348274178,1.248408310316705,1.0,2.0864665886851737,1.0,2.0,3.08668746928902,"1689944,","0.57,","-0.02,","-1.42,","139.33,","134.02,","21.04,","5.55,","72.77,",-51.91,"1689954,","0.53,","-0.28,","-1.50,","56.28,","81.95,","-22.38,","4.95,","70.07,",-51.01,63481,1602597238.613746,1234,0.13953849059299261,1.6276339719273296,2.983090639292209,0.9110808938547952,1.4465773954439531,2.041440694169233,0.3589148807675543,1.552683181177131,2.401698237886616,63473,1602597238.613746,4321,0.45516133308410645,1.2067956924438477,2.4827160835266113,3.617663621902466,4.20717716217041,5.90576171875
,,155358.64142,1.4257748126983643,44298,1602597238.637558,vicon,object name,0.191798144118155,1.0265275075734768,1.0,2.6384793860239624,1.0,2.0,3.9573717245410975,"1689964,","0.51,","-0.39,","-1.58,","-7.56,","19.51,","-39.82,","4.95,","71.12,",-51.46,"1689974,","0.43,","-0.43,","-1.49,","-31.65,","-12.44,","-47.44,","6.75,","70.37,",-50.71,63483,1602597238.633735,1234,0.7389963216606016,1.3278172635332472,2.8133675901641,0.19931799753913937,1.2018813824901209,2.390535349899302,0.7196953257609753,1.7928513291293275,2.0506973031676257,63475,1602597238.633735,4321,0.12623728811740875,1.057309865951538,2.2070603370666504,3.2195656299591064,4.36295223236084,5.089147567749023
,,155358.709904,1.494257926940918,44305,1602597238.707549,vicon,object name,0.32052539734533947,1.9330596233830164,1.0,2.4992606805133923,1.0,2.0,3.8347495553284743,"1690033,","0.50,","-0.66,","-1.38,","-21.95,","-183.90,","40.98,","1.80,","67.67,",-50.41,"1690043,","0.33,","-0.57,","-1.27,","-35.67,","-175.98,","17.56,","1.05,","68.87,",-51.16,63490,1602597238.703854,1234,0.6772663481932499,1.6401302671505213,2.2969873561095246,0.9776564782182547,1.4543719332117844,2.108336101218243,0.36691886697588993,1.3019200911975688,2.328280804468765,63482,1602597238.703854,4321,0.30777278542518616,1.4022722244262695,2.7410874366760254,3.491546154022217,4.424988269805908,5.887611389160156
,,155358.730411,1.514765739440918,44307,1602597238.727553,vicon,object name,0.42351375577416006,1.5533304606437333,1.0,2.8881959848258054,1.0,2.0,3.8445583308037,"1690053,","0.22,","-0.61,","-1.26,","-72.62,","-158.84,","-10.00,","-0.45,","68.12,",-51.61,"1690063,","0.25,","-0.52,","-1.11,","-123.29,","-115.73,","-53.48,","-0.90,","67.67,",-50.11,63492,1602597238.723875,1234,0.7801898026059988,1.220669154398295,2.1271607896704396,0.8138242937831854,1.087989019543012,2.6349578140337875,0.543266253178763,1.044021664964176,2.9382713796991116,63484,1602597238.723875,4321,0.6279373168945312,1.2833691835403442,2.0233960151672363,3.9392096996307373,4.802194595336914,5.312663555145264
,,155358.750914,1.5352709293365479,44309,1602597238.747584,vicon,object name,0.4950312129757458,1.0355187902957854,1.0,2.7889553925050254,1.0,2.0,3.9982790947828146,"1690073,","0.34,","-0.72,","-1.22,","-175.30,","-88.90,","-99.51,","-0.75,","67.52,",-52.21,"1690084,","0.55,","-0.62,","-1.18,","-227.38,","-66.52,","-156.89,","-1.65,","67.22,",-51.01,63494,1602597238.743733,1234,0.21572396919623693,1.5412285589810664,2.4611387628366,0.28761031957410654,1.2352682708978164,2.4739923298645454,0.49703669465624867,1.9383073860318536,2.4728264811172336,63486,1602597238.743733,4321,0.08286735415458679,1.7083539962768555,2.116731882095337,3.3001654148101807,4.28810453414917,5.208429336547852
,,155358.771373,1.5557284355163574,44311,1602597238.767542,vicon,object name,0.07507210626440175,1.778212672751763,1.0,2.4961196352026995,1.0,2.0,3.5018206915772927,"1690094,","0.53,","-0.37,","-0.83,","-241.52,","-38.54,","-222.13,","-1.50,","66.02,",-51.61,"1690104,","0.09,","-0.01,","-0.55,","-235.24,","-41.16,","-271.40,","-1.95,","64.82,",-51.01,63496,1602597238.763838,1234,0.5021619468653262,1.7137333613486443,2.0283951303400465,0.5332022726301514,1.8683093595978506,2.5123528765232117,0.9158672201524786,1.8037730093377053,2.2313196366798973,63488,1602597238.763838,4321,0.3374940752983093,1.3054790496826172,2.0638723373413086,3.4058644771575928,4.88237190246582,5.163084506988525
,,155358.791887,1.5762412548065186,44313,1602597238.787554,vicon,object name,0.11442947012103377,1.1997071344121981,1.0,2.8931398356383737,1.0,2.0,3.9412107635749334,"1690114,","-0.26,","-0.04,","-0.94,","-245.98,","-29.15,","-278.11,","-1.20,","63.17,",-49.81,"1690125,","-0.48,","0.15,","-0.46,","-294.70,","71.16,","-272.50,","0.15,","60.92,",-52.81,63498,1602597238.78385,1234,0.26914229981206805,1.9640398134425507,2.146031036145949,0.00213414185144456,1.7843538441082067,2.2830718043108558,0.7863960244279133,1.577148748692467,2.561005489090564,63490,1602597238.78385,4321,0.12930165231227875,1.9964810609817505,2.2091400623321533,3.6459217071533203,4.33376932144165,5.7021613121032715
,,155358.812503,1.596858024597168,44315,1602597238.807698,vicon,object name,0.48939946398610656,1.4847953604933095,1.0,2.8853000451256725,1.0,2.0,3.9260818005556217,"1690135,","-0.66,","0.41,","-0.28,","-254.70,","152.01,","-217.80,","0.15,","58.06,",-53.41,"1690145,","-0.93,","0.47,","-0.59,","-235.43,","224.94,","-155.24,","0.15,","54.91,",-53.11,63500,1602597238.803759,1234,0.5630047903336659,1.613650326254047,2.3539954300352495,0.6045138843720524,1.063905523271083,2.942448750649625,0.3170004978379851,1.271477605144355,2.8801901118852458,63492,1602597238.803759,4321,0.7319405674934387,1.6822199821472168,2.806267499923706,3.149014472961426,4.670233726501465,5.610936641693115
,,155358.882646,1.667004108428955,44322,1602597238.87759,vicon,object name,0.11745793367575263,1.1887025928043855,1.0,2.994646361823806,1.0,2.0,3.6505156957334544,"1690156,","-0.55,","0.31,","-0.56,","-292.44,","236.77,","-10.73,","3.30,","50.41,",-53.71,"1690215,","-0.21,","0.24,","-0.70,","-71.95,","-68.29,","18.17,","6.30,","50.26,",-53.56,63507,1602597238.873779,1234,0.8420396502949581,1.4637238600336677,2.6911792696120327,0.8689089354082743,1.316019867164231,2.293280876641166,0.31918786585037573,1.8743336970116915,2.402948425911286,63499,1602597238.873779,4321,0.6567515134811401,1.1050856113433838,2.6014347076416016,3.8849563598632812,4.232983589172363,5.8507795333862305
,,155358.903279,1.687638282775879,44324,1602597238.897567,vicon,object name,0.24336847548883334,1.3648927299068592,1.0,2.5551830596857896,1.0,2.0,3.708641449133011,"1690226,","-0.14,","0.39,","-0.57,","-73.60,","-37.20,","30.30,","5.25,","49.51,",-55.36,"1690236,","-0.15,","0.57,","-0.65,","-59.76,","-57.80,","43.23,","3.15,","50.26,",-53.86,63509,1602597238.893782,1234,0.6221421761255942,1.5993019515958102,2.7137862285823795,0.016767997036806648,1.7038924722841693,2.693932509517807,0.07283057428603079,1.8383733265426954,2.524929226673915,63501,1602597238.893782,4321,0.20415619015693665,1.0878976583480835,2.412059783935547,3.6495940685272217,4.757602691650391,5.442824363708496
,,155358.92347,1.7078299522399902,44326,1602597238.917591,vicon,object name,0.7753629229753582,1.9897045091807244,1.0,2.002319835246683,1.0,2.0,3.6115786047985616,"1690246,","-0.21,","0.49,","-0.80,","-54.70,","-59.76,","47.38,","2.70,","52.36,",-53.26,"1690256,","-0.16,","0.36,","-0.88,","-54.33,","-21.95,","44.33,","1.80,","51.16,",-53.71,63511,1602597238.913791,1234,0.6958620215498987,1.9251702098927657,2.443461834523233,0.2999894610764494,1.086215094941172,2.872297210759075,0.6529888802545917,1.5668492163851548,2.1169842088745137,63503,1602597238.913791,4321,0.6743065118789673,1.010750651359558,2.0393307209014893,3.7249035835266113,4.656013488769531,5.198386192321777
,,155359.00847,1.7928314208984375,44334,1602597238.9976,vicon,object name,0.7078748813718229,1.8401242213321156,1.0,2.2454773004586164,1.0,2.0,3.353803699347081,"1690331,","-1.31,","0.83,","0.22,","-17.26,","-227.38,","-31.40,","-2.55,","67.52,",-51.91,"1690341,","-1.82,","0.57,","0.13,","-2.87,","-182.32,","-62.44,","-3.30,","66.32,",-51.16,63520,1602597239.3833,1234,0.11115079615299173,1.1618265329364028,2.2889220064527667,0.5173164224348211,1.8311298350836922,2.888136729772827,0.1913495009133963,1.8844186107642678,2.7371670222356466,63512,1602597239.3833,4321,0.7841548323631287,1.2309281826019287,2.074214458465576,3.4152495861053467,4.667673110961914,5.315290927886963
,,155359.028684,1.8130507469177246,44336,1602597239.17579,vicon,object name,0.004321348254362478,1.9967013688682511,1.0,2.0846397046190717,1.0,2.0,3.641335765273243,"1690352,","-2.10,","0.52,","0.16,","18.11,","-84.70,","-82.26,","-1.80,","69.17,",-50.86,"1690361,","-2.23,","0.69,","0.19,","25.12,","12.62,","-80.79,","-0.90,","66.92,",-50.71,63522,1602597239.2385,1234,0.5279324964003269,1.6259581523088347,2.7293631905042854,0.3839450100581664,1.241830811006105,2.6156895435943173,0.7758689641925443,1.8967042819982105,2.3785974505516387,63514,1602597239.2385,4321,0.5120884776115417,1.5151714086532593,2.072286367416382,3.763021469116211,4.628118515014648,5.824192047119141
,,155359.048997,1.8333570957183838,44338,1602597239.37582,vicon,object name,0.4743459503813797,1.2046498735250188,1.0,2.640194679299244,1.0,2.0,3.0761712612467322,"1690371,","-2.08,","0.86,","0.19,","29.63,","90.12,","-56.89,","-2.25,","67.82,",-50.86,"1690382,","-1.76,","1.14,","0.30,","43.72,","150.98,","-2.01,","-1.20,","66.77,",-50.26,63524,1602597239.43781,1234,0.782175878861251,1.381226713565208,2.109414656813151,0.19096636152989277,1.3731113700803932,2.4383054303470324,0.1459422698991264,1.4557347534161504,2.6542736902065793,63516,1602597239.43781,4321,0.05081288889050484,1.5902920961380005,2.208287239074707,3.4093525409698486,4.6449384689331055,5.898182392120361
,,155359.068388,1.852745532989502,44340,1602597239.57602,vicon,object name,0.5732713117686317,1.43424051158052,1.0,2.6440527144316226,1.0,2.0,3.8725960662995966,"1690391,","-1.32,","1.26,","0.37,","79.63,","191.89,","94.88,","0.00,","67.07,",-51.61,"1690401,","-0.78,","1.17,","0.39,","134.57,","208.66,","217.38,","-1.20,","62.87,",-51.16,63526,1602597239.63852,1234,0.077836616048099,1.353785893550484,2.6988898720211685,0.8876964339466877,1.5376187930892986,2.0223506792962755,0.7653257013705917,1.4537542417292482,2.4644176438561542,63518,1602597239.63852,4321,0.5773472189903259,1.7000588178634644,2.5142323970794678,3.351886034011841,4.763646125793457,5.18052864074707
,,155359.137268,1.9216270446777344,44347,1602597239.127597,vicon,object name,0.7843558232888975,1.0520119268895143,1.0,2.36590558174117,1.0,2.0,3.588155515147971,"1690412,","-0.20,","0.98,","0.40,","195.00,","211.95,","326.22,","0.45,","61.67,",-53.41,"1690470,","0.18,","0.78,","0.37,","252.07,","209.09,","384.15,","10.50,","51.31,",-55.36,63532,1602597239.123771,1234,0.15640105100080537,1.4811528278494233,2.239614413132364,0.24196142201820692,1.247998266384268,2.1704347546291247,0.40675772678592015,1.5800702302442722,2.511805923816321,63524,1602597239.123771,4321,0.6268168091773987,1.7473558187484741,2.353043556213379,3.198429822921753,4.940940856933594,5.243837833404541
,,155359.156926,1.9412848949432373,44349,1602597239.147614,vicon,object name,0.6721530650790467,1.876459745419929,1.0,2.888571444761398,1.0,2.0,3.865876434431408,"1690480,","0.61,","0.40,","0.19,","295.61,","201.22,","374.02,","10.05,","49.21,",-54.91,"1690489,","1.39,","-0.15,","-0.20,","330.85,","208.29,","326.34,","10.65,","48.91,",-55.06,63534,1602597239.143789,1234,0.22068383997305097,1.2219639239748519,2.8547967070698013,0.41248663536929364,1.4761015477394377,2.7622664497563627,0.11092055073248086,1.2084965993880514,2.438412297380831,63526,1602597239.143789,4321,0.5852811932563782,1.5487934350967407,2.3725650310516357,3.1442618370056152,4.6862053871154785,5.985572338104248
,,155359.176619,1.9609787464141846,44351,1602597239.167612,vicon,object name,0.7069109342969394,1.7596468680001998,1.0,2.5292394203436985,1.0,2.0,3.723335903607485,"1690499,","2.28,","-0.98,","-0.73,","359.94,","240.98,","272.20,","12.00,","48.91,",-56.86,"1690509,","3.17,","-1.76,","-1.17,","332.50,","262.74,","193.90,","11.85,","47.11,",-55.96,63536,1602597239.163784,1234,0.6776118692943539,1.9234622918924333,2.66759617456752,0.6781670062711954,1.1652657324233495,2.6860443032821504,0.48606275819522315,1.2332287878115722,2.7730378816533516,63528,1602597239.163784,4321,0.1559464931488037,1.655106544494629,2.900329351425171,3.0992774963378906,4.369958877563477,5.357421398162842
,,155359.196122,1.9804840087890625,44353,1602597239.187682,vicon,object name,0.9160699634211784,1.6409573049479746,1.0,2.7841800561005834,1.0,2.0,3.4491369409622075,"1690519,","3.33,","-2.73,","-2.05,","250.00,","195.91,","134.27,","10.05,","45.01,",-57.01,"1690529,","3.06,","-2.79,","-2.05,","146.71,","142.44,","15.73,","7.50,","44.11,",-55.81,63538,1602597239.183771,1234,0.8036173427932356,1.5855450957104078,2.9229251174057143,0.26161376375684975,1.4066241180872288,2.373643331093492,0.6504208648211207,1.9516182692436383,2.9391039179524263,63530,1602597239.183771,4321,0.2708367109298706,1.1369829177856445,2.299938678741455,3.951704502105713,4.391727924346924,5.765040397644043
,,155359.215752,2.000127077102661,44355,1602597239.207656,vicon,object name,0.41143086052420663,1.2976731004402735,1.0,2.576774771949744,1.0,2.0,3.850416756086118,"1690538,","2.78,","-2.51,","-2.42,","56.59,","127.56,","-58.23,","7.80,","44.41,",-55.81,"1690548,","2.35,","-1.74,","-1.99,","-43.78,","212.62,","-90.00,","5.70,","43.66,",-55.51,63540,1602597239.203756,1234,0.444230371213269,1.7313993455097472,2.6956260986014255,0.3085938623076939,1.765909512052815,2.4098396733098255,0.21562116213816096,1.0410239431092012,2.866677354323443,63532,1602597239.203756,4321,0.017910191789269447,1.5820976495742798,2.8692777156829834,3.054475784301758,4.577044486999512,5.530307769775391
,,155359.235215,2.019577980041504,44357,1602597239.227615,vicon,object name,0.517789096068046,1.7626131825209148,1.0,2.0985087779033886,1.0,2.0,3.1666482432336114,"1690558,","2.42,","-0.99,","-1.49,","-148.90,","199.27,","-126.83,","3.45,","42.46,",-54.91,"1690568,","1.78,","-1.16,","-1.52,","-179.57,","102.93,","-2.44,","2.25,","45.16,",-56.11,63542,1602597239.22387,1234,0.9250669008334583,1.4619848399105195,2.101200829894177,0.9984747203177808,1.8415714932574652,2.4215621660217757,0.09201609961521895,1.9808822694501427,2.2911462857042144,63534,1602597239.22387,4321,0.6602497696876526,1.3859226703643799,2.3537681102752686,3.887519359588623,4.500281810760498,5.282165050506592
,,155359.25469,2.0390613079071045,44359,1602597239.247581,vicon,object name,0.5052488740633457,1.5413034334529487,1.0,2.8580196618757574,1.0,2.0,3.90944013548535,"1690577,","1.85,","-0.66,","-1.30,","-206.95,","17.93,","-82.99,","1.35,","46.36,",-57.61,"1690587,","1.51,","-0.44,","-0.88,","-243.90,","39.27,","-164.70,","-0.75,","47.41,",-55.36,63544,1602597239.243774,1234,0.9779408120351936,1.641674492130727,2.9403038719699426,0.8994896240734837,1.685152776990674,2.6426508662188137,0.670516299013324,1.5653360341926428,2.5308147683640945,63536,1602597239.243774,4321,0.17947722971439362,1.4864115715026855,2.635617971420288,3.381181240081787,4.513592720031738,5.76859188079834
,,155359.318857,2.103217840194702,44365,1602597239.30757,vicon,object name,0.8289139444073901,1.6215370355759497,1.0,2.8068203486492216,1.0,2.0,3.444232110018304,"1690642,","0.64,","-0.01,","-0.59,","-247.62,","61.04,","-218.60,","-2.55,","53.71,",-53.86,"1690651,","0.85,","0.38,","-0.59,","-202.93,","-108.35,","-232.01,","-3.30,","54.01,",-54.91,63551,1602597239.31376,1234,0.839909217234301,1.2390742383581341,2.4509923510888747,0.6689870303123135,1.7680702391051022,2.0019458200803877,0.11321048190883509,1.28576572990489,2.8330868762629917,63543,1602597239.31376,4321,0.47747498750686646,1.327268362045288,2.621344804763794,3.973017454147339,4.312558650970459,5.915399074554443
,,155359.338321,2.1226797103881836,44367,1602597239.32764,vicon,object name,0.2903905083250896,1.8665021429692592,1.0,2.366894396357483,1.0,2.0,3.9680123216801206,"1690661,","0.53,","0.63,","-0.39,","-183.35,","-184.94,","-200.67,","-5.10,","53.56,",-56.11,"1690671,","0.16,","0.88,","-0.38,","-176.83,","-190.85,","-145.06,","-2.70,","55.96,",-54.46,63553,1602597239.333851,1234,0.9971035229594232,1.4869797941352831,2.9575090557439765,0.9781089521798719,1.1084696364374436,2.8055625870450824,0.09866948227878625,1.603681943108532,2.364860993938683,63545,1602597239.333851,4321,0.11379717290401459,1.9649547338485718,2.045337677001953,3.1673152446746826,4.191168785095215,5.274438381195068
,,155359.357907,2.142285108566284,44369,1602597239.347601,vicon,object name,0.0662476327085264,1.296959559977961,1.0,2.3173843719944607,1.0,2.0,3.4408722974417367,"1690680,","0.07,","1.04,","-0.17,","-158.84,","-180.55,","-92.07,","-4.50,","55.36,",-54.46,"1690690,","0.17,","1.08,","-0.09,","-132.01,","-194.57,","-17.07,","-4.05,","55.96,",-54.76,63554,1602597239.343856,1234,0.9649947362596951,1.138804571583342,2.313890985522813,0.020293904112281713,1.6849432404452478,2.9710551344509093,0.7104962940576944,1.158595478820672,2.619664363385139,63546,1602597239.343856,4321,0.10079885274171829,1.8071186542510986,2.9275457859039307,3.0811712741851807,4.369073390960693,5.8806586265563965
,,155359.377376,2.1617348194122314,44371,1602597239.367569,vicon,object name,0.5296790495085385,1.2743271826776,1.0,2.6705360853723854,1.0,2.0,3.3018898075461296,"1690700,","-0.10,","0.77,","-0.25,","-116.71,","-227.74,","44.57,","-4.35,","55.96,",-54.76,"1690710,","-0.39,","0.67,","-0.49,","-91.28,","-216.10,","50.24,","-4.35,","55.81,",-54.31,63556,1602597239.363791,1234,0.9786203589897848,1.118237625494201,2.2400534395894676,0.4833209564942015,1.1723778212802745,2.031853355208073,0.6229447884328525,1.8235537519675593,2.9564725977917576,63548,1602597239.363791,4321,0.45017242431640625,1.0906333923339844,2.8364787101745605,3.0769243240356445,4.909539222717285,5.469271183013916
,,155359.396562,2.180919647216797,44373,1602597239.387623,vicon,object name,0.771297007300566,1.3408764623872802,1.0,2.812425277982001,1.0,2.0,3.1207644290434033,"1690719,","-0.45,","0.65,","-0.46,","-54.33,","-141.59,","17.87,","-4.95,","55.51,",-53.56,"1690729,","-0.39,","0.65,","-0.36,","-23.11,","-91.65,","-14.76,","-5.85,","55.66,",-55.51,63558,1602597239.383795,1234,0.22772226473295276,1.0843713995827091,2.933500522819325,0.17557236851769376,1.8486529984417228,2.3280950317101206,0.3327153676912262,1.9242866139887354,2.6437570591255213,63550,1602597239.383795,4321,0.8532618880271912,1.4469283819198608,2.408552646636963,3.0119030475616455,4.584094524383545,5.288680553436279
,,155359.415781,2.200139045715332,44375,1602597239.407591,vicon,object name,0.5742206713777745,1.0176460972127357,1.0,2.773548585647941,1.0,2.0,3.728905427129021,"1690739,","-0.22,","0.59,","-0.38,","-6.83,","-82.56,","-23.35,","-3.45,","57.01,",-53.71,"1690748,","-0.30,","0.43,","-0.55,","-4.63,","-85.06,","1.71,","-6.15,","57.46,",-53.71,63560,1602597239.403785,1234,0.007354468289635485,1.3915059560227752,2.084134611548627,0.031068839455179798,1.3084317731568342,2.7787011999577356,0.45578697025763293,1.2749352433850265,2.534679848758495,63552,1602597239.403785,4321,0.11165978759527206,1.3051437139511108,2.2004809379577637,3.8352274894714355,4.3208184242248535,5.880787372589111
,,155359.484081,2.268441677093506,44382,1602597239.477626,vicon,object name,0.030871804902162348,1.453975325268932,1.0,2.6331390526282528,1.0,2.0,3.22406385826552,"1690758,","-0.35,","0.33,","-0.65,","-5.18,","-71.95,","17.87,","-6.90,","55.66,",-53.71,"1690817,","-0.30,","0.25,","-0.69,","-10.37,","-56.28,","20.18,","-7.95,","53.86,",-50.41,63567,1602597239.473754,1234,0.5707906309235452,1.8226298294826244,2.3667249960250274,0.6241041602378755,1.3455645512010133,2.556199866786942,0.9298989350637512,1.2509051953194956,2.9861055695180747,63559,1602597239.473754,4321,0.589870274066925,1.3480451107025146,2.7727909088134766,3.9842145442962646,4.725810527801514,5.943596363067627
,,155359.503459,2.2878174781799316,44384,1602597239.497561,vicon,object name,0.24667870041878281,1.3882882365163454,1.0,2.1458513727344344,1.0,2.0,3.837596380012962,"1690826,","-0.18,","0.20,","-0.72,","-22.99,","-51.95,","22.07,","-8.85,","55.51,",-50.56,"1690836,","-0.23,","0.25,","-0.78,","-36.65,","-40.18,","22.50,","-9.30,","54.91,",-50.71,63569,1602597239.493783,1234,0.20947762791674496,1.8249235766440624,2.0430365133568094,0.46311559484360254,1.6408016180296021,2.224654118419763,0.09133729182012884,1.763241060907959,2.1696073058346483,63561,1602597239.493783,4321,0.6158091425895691,1.548279881477356,2.073373317718506,3.063098192214966,4.662070274353027,5.426552772521973
,,155359.522871,2.307230234146118,44386,1602597239.517559,vicon,object name,0.9663769619700916,1.0885843098226136,1.0,2.4237186425695874,1.0,2.0,3.0924932243155547,"1690846,","-0.15,","0.25,","-0.83,","-49.02,","-32.80,","23.23,","-10.05,","53.56,",-50.41,"1690855,","-0.03,","0.34,","-0.71,","-57.80,","-5.67,","5.37,","-10.35,","54.91,",-50.41,63571,1602597239.513776,1234,0.030806683272371238,1.5396277912685934,2.703566353045839,0.9136204596498799,1.4065175682710283,2.7681726045861343,0.29660777956985895,1.4063992691960823,2.160981657775941,63563,1602597239.513776,4321,0.39000973105430603,1.2220159769058228,2.8912110328674316,3.768551826477051,4.781078338623047,5.913554668426514
,,155359.542319,2.3266782760620117,44388,1602597239.537586,vicon,object name,0.795269583751052,1.7286832326394679,1.0,2.244647721431043,1.0,2.0,3.781690235312017,"1690865,","0.02,","0.45,","-0.66,","-62.87,","16.83,","-6.34,","-10.65,","53.41,",-50.86,"1690875,","0.10,","0.52,","-0.59,","-69.27,","40.55,","-1.83,","-10.65,","51.61,",-49.51,63573,1602597239.533744,1234,0.45357765614360557,1.46736134807733,2.998458763997718,0.6954466560404076,1.176385241408581,2.3870836616253266,0.44881728643267427,1.9696946618503253,2.8822587964399355,63565,1602597239.533744,4321,0.9274011254310608,1.5951697826385498,2.1139323711395264,3.1087517738342285,4.669357776641846,5.547153472900391
,,155359.561687,2.3460450172424316,44390,1602597239.557611,vicon,object name,0.34574656900879763,1.8945714675838037,1.0,2.694383117843146,1.0,2.0,3.7671424616301885,"1690884,","0.25,","0.56,","-0.52,","-64.02,","53.29,","3.60,","-12.00,","52.66,",-50.86,"1690894,","0.32,","0.63,","-0.57,","-58.60,","44.15,","11.04,","-11.40,","51.76,",-48.61,63575,1602597239.55378,1234,0.9610275963509403,1.2881706536156048,2.6571777513128954,0.7973078438038605,1.0602682476081915,2.704496194580985,0.006780865754757226,1.899950723413217,2.943019219748395,63567,1602597239.55378,4321,0.3673563599586487,1.1769431829452515,2.9931585788726807,3.7875285148620605,4.310760021209717,5.682414531707764
,,155359.581123,2.3654890060424805,44392,1602597239.577592,vicon,object name,0.8516431123573412,1.9960848029245097,1.0,2.6053242423720246,1.0,2.0,3.4305000686242164,"1690904,","0.34,","0.63,","-0.62,","-58.05,","34.57,","28.23,","-12.15,","50.41,",-50.11,"1690913,","0.37,","0.61,","-0.65,","-60.06,","33.05,","44.39,","-11.10,","49.66,",-50.41,63577,1602597239.573777,1234,0.206640689544349,1.1650522982779032,2.5588128113848825,0.47597313723776535,1.2968526957846236,2.223859244511168,0.7156433666592216,1.5772518448046084,2.2254845092414386,63569,1602597239.573777,4321,0.5000430941581726,1.4755629301071167,2.6928389072418213,3.6455461978912354,4.954768180847168,5.056200981140137
,,155359.600641,2.3849987983703613,44394,1602597239.597584,vicon,object name,0.10752214269025617,1.1091248740291086,1.0,2.8585602169663953,1.0,2.0,3.5109383190196612,"1690923,","0.44,","0.62,","-0.67,","-61.65,","31.46,","51.28,","-11.85,","51.76,",-49.06,"1690933,","0.48,","0.57,","-0.63,","-67.32,","26.65,","53.23,","-12.15,","51.16,",-49.36,63579,1602597239.593781,1234,0.705984633355757,1.741901624153214,2.7659411714950575,0.4214496359056946,1.4099554651049533,2.672217855072691,0.06500644463835925,1.8594902547042742,2.6988833373932333,63571,1602597239.593781,4321,0.6772289276123047,1.6866745948791504,2.1154682636260986,3.8332862854003906,4.096883773803711,5.953773498535156
,,155359.668067,2.452430248260498,44400,1602597239.657552,vicon,object name,0.32475384020892384,1.8654154682226807,1.0,2.7157394317266834,1.0,2.0,3.899293596424583,"1690990,","0.47,","0.53,","-0.66,","-67.93,","22.50,","38.72,","-12.90,","49.66,",-48.46,"1691000,","0.51,","0.53,","-0.74,","-59.63,","20.18,","0.73,","-12.45,","48.31,",-49.36,63586,1602597239.663769,1234,0.9413567269218672,1.4200814172844205,2.7212463380695455,0.9342919496668886,1.0892820822074496,2.115918048528316,0.7869886615240638,1.5163110645934788,2.257654423150043,63578,1602597239.663769,4321,0.24059300124645233,1.8101613521575928,2.993208408355713,3.468062400817871,4.845106601715088,5.459038734436035
,,155359.688539,2.472897529602051,44402,1602597239.677625,vicon,object name,0.7524872064525462,1.0088690471355877,1.0,2.274681637386746,1.0,2.0,3.63327751040611,"1691010,","0.64,","0.57,","-0.68,","-53.96,","29.63,","-32.07,","-13.05,","46.36,",-48.16,"1691021,","0.71,","0.67,","-0.60,","-52.38,","38.35,","-40.61,","-13.50,","47.26,",-48.01,63588,1602597239.683851,1234,0.6355798301153981,1.171577015762589,2.948419293219092,0.23452992442603016,1.1740461592659805,2.815482610094497,0.49536221263113944,1.2062903541113608,2.9927616797175944,63580,1602597239.683851,4321,0.436184287071228,1.1318424940109253,2.6339666843414307,3.3579702377319336,4.2033257484436035,5.55687952041626
,,155359.708886,2.49324369430542,44404,1602597239.697619,vicon,object name,0.29601510852611845,1.7373398486073661,1.0,2.250834159133337,1.0,2.0,3.493628957039852,"1691031,","0.70,","0.84,","-0.49,","-51.83,","38.84,","-31.71,","-13.05,","47.11,",-48.16,"1691041,","0.64,","0.97,","-0.55,","-48.29,","24.33,","-5.98,","-13.80,","46.66,",-48.46,63590,1602597239.703805,1234,0.8672497384704325,1.8065242338457888,2.3415134206413004,0.12034609436355537,1.6064495703775825,2.066786446553709,0.5448057349940856,1.4085389852535526,2.085138639625427,63582,1602597239.703805,4321,0.664304792881012,1.3144162893295288,2.4309356212615967,3.7274839878082275,4.031252861022949,5.928983211517334
,,155359.729434,2.5137932300567627,44406,1602597239.71759,vicon,object name,0.4664447941374711,1.556205062739604,1.0,2.401518907070608,1.0,2.0,3.843046005943262,"1691051,","0.57,","0.98,","-0.58,","-47.87,","16.16,","35.91,","-14.40,","47.71,",-48.16,"1691062,","0.52,","0.92,","-0.55,","-42.50,","6.52,","73.72,","-13.20,","47.26,",-49.36,63592,1602597239.72387,1234,0.02325922103035627,1.7497021611357613,2.2874379833638927,0.23564435296256137,1.3481711353618913,2.463519950374903,0.4891752238558853,1.6915753243451155,2.3279518821175995,63584,1602597239.72387,4321,0.20207910239696503,1.5127345323562622,2.8550620079040527,3.148979663848877,4.375330924987793,5.813861846923828
,,155359.749914,2.5342719554901123,44409,1602597239.747553,vicon,object name,0.360471919181343,1.8673097911986511,1.0,2.155624925630545,1.0,2.0,3.2202902778200255,"1691072,","0.57,","0.78,","-0.55,","-40.85,","2.68,","93.41,","-14.25,","47.26,",-47.71,"1691082,","0.69,","0.68,","-0.62,","-33.90,","4.63,","97.38,","-15.00,","46.81,",-47.26,63594,1602597239.743848,1234,0.504782158632559,1.3167849809833605,2.2320129476445305,0.892003218593052,1.4699228776425841,2.244643455947944,0.5617517499108547,1.5481841981609752,2.049792216706629,63586,1602597239.743848,4321,0.3717459440231323,1.2855002880096436,2.832211494445801,3.773165702819824,4.5846147537231445,5.076390743255615
,,155359.770472,2.5548341274261475,44411,1602597239.767616,vicon,object name,0.7142347756112544,1.6767868296267952,1.0,2.333026345858732,1.0,2.0,3.222322718529673,"1691092,","0.75,","0.54,","-0.57,","-33.54,","9.09,","86.95,","-13.05,","48.76,",-47.56,"1691103,","0.78,","0.48,","-0.64,","-19.45,","6.22,","59.51,","-14.55,","47.86,",-45.91,63596,1602597239.763751,1234,0.6068778321659722,1.4226919620577139,2.3640105733514103,0.6812887862533832,1.918997467509785,2.0151846958464024,0.7658155652710633,1.7338937075947234,2.214407462563162,63588,1602597239.763751,4321,0.7681586146354675,1.0098228454589844,2.964228868484497,3.2366087436676025,4.807427883148193,5.125165939331055
,,155359.790812,2.575180768966675,44413,1602597239.787567,vicon,object name,0.8103995398981797,1.132308162626801,1.0,2.460457751060342,1.0,2.0,3.1536296533703947,"1691113,","0.76,","0.49,","-0.63,","-17.13,","13.48,","30.91,","-16.05,","46.21,",-46.66,"1691123,","0.74,","0.54,","-0.73,","-5.61,","10.30,","18.05,","-16.95,","47.11,",-45.16,63598,1602597239.783744,1234,0.2073764916948212,1.654728780644453,2.40485533397315,0.16194055753210146,1.9521566888425546,2.4365967712758336,0.06880279414703938,1.8070981390065834,2.8660248698021538,63590,1602597239.783744,4321,0.16366811096668243,1.6135543584823608,2.2462522983551025,3.121985912322998,4.1833367347717285,5.286426544189453
,,155359.858506,2.6428639888763428,44419,1602597239.847563,vicon,object name,0.38226204007100617,1.0667119338266606,1.0,2.130635967393073,1.0,2.0,3.796681015146823,"1691181,","0.74,","0.59,","-0.71,","-5.55,","11.46,","15.98,","-17.25,","42.46,",-40.06,"1691191,","0.69,","0.59,","-0.73,","-9.63,","7.62,","30.18,","-19.20,","42.61,",-39.16,63605,1602597239.853771,1234,0.10568467213296528,1.4001774633036044,2.7333018301589997,0.9969885858446866,1.7576632337574996,2.9014320111253245,0.0468552409011902,1.7542561457256645,2.588736087689048,63597,1602597239.853771,4321,0.8571722507476807,1.2759473323822021,2.937504291534424,3.371556043624878,4.4127912521362305,5.217928409576416
,,155359.879025,2.6633832454681396,44421,1602597239.86756,vicon,object name,0.11979935690561516,1.6336323589495665,1.0,2.2670383787949007,1.0,2.0,3.3628644167408055,"1691201,","0.66,","0.62,","-0.69,","-22.20,","11.89,","53.23,","-19.65,","42.46,",-37.66,"1691211,","0.68,","0.67,","-0.68,","-42.74,","13.11,","84.33,","-19.80,","39.91,",-34.81,63607,1602597239.873741,1234,0.7072378251863639,1.1240404466287313,2.5367972546114372,0.25446584949513584,1.5290815300150171,2.8349582530606656,0.6663382759263989,1.32824765097329,2.0100867812849765,63599,1602597239.873741,4321,0.13641050457954407,1.4015001058578491,2.762009620666504,3.9698128700256348,4.651228427886963,5.176476001739502
,,155359.899559,2.68391752243042,44423,1602597239.887678,vicon,object name,0.05399655641045964,1.8201670168113009,1.0,2.871908491742255,1.0,2.0,3.255003972829056,"1691221,","0.53,","0.58,","-0.60,","-72.56,","10.30,","111.22,","-20.41,","39.61,",-32.26,"1691232,","0.60,","0.42,","-0.73,","-84.15,","-5.12,","111.22,","-20.26,","39.46,",-31.81,63609,1602597239.893775,1234,0.0623760723251745,1.971267839085093,2.652345320390662,0.24382290626625458,1.286230427954949,2.4465979947554697,0.8862156627561238,1.7218869666720589,2.080276089219308,63601,1602597239.893775,4321,0.9613791704177856,1.5384091138839722,2.2949905395507812,3.830015182495117,4.293036460876465,5.451874732971191
,,155359.919894,2.7042572498321533,44425,1602597239.907582,vicon,object name,0.9379269179753942,1.0843346075956402,1.0,2.9064507457821254,1.0,2.0,3.1970539203403288,"1691242,","0.66,","0.30,","-0.81,","-80.79,","-0.61,","86.59,","-20.56,","37.06,",-31.06,"1691252,","0.77,","0.33,","-0.70,","-55.43,","6.28,","35.91,","-20.41,","36.91,",-29.26,63611,1602597239.913774,1234,0.15237770366725645,1.2698741212361,2.6735393247557853,0.8258550236127774,1.7863716850001996,2.63113280604849,0.32349062150552965,1.1210800888748857,2.580386089165273,63603,1602597239.913774,4321,0.32984936237335205,1.2930563688278198,2.9964585304260254,3.1446752548217773,4.328210353851318,5.2118000984191895
,,155359.940221,2.724578619003296,44428,1602597239.937623,vicon,object name,0.3850443200855951,1.2433151795455921,1.0,2.0888591815574107,1.0,2.0,3.418008640324676,"1691262,","0.85,","0.40,","-0.74,","-31.04,","0.12,","-5.30,","-22.66,","36.01,",-30.01,"1691272,","0.72,","0.45,","-0.62,","-2.26,","1.83,","-15.91,","-22.81,","36.91,",-28.51,63613,1602597239.933843,1234,0.08171870903337453,1.1148049358574206,2.684642809893268,0.12736087874943536,1.5600003135707778,2.8051537119145653,0.1548042577854265,1.93240353882833,2.4737435035162068,63605,1602597239.933843,4321,0.3539939820766449,1.4307223558425903,2.6228907108306885,3.6550028324127197,4.37413215637207,5.660284996032715
,,155359.960563,2.7449209690093994,44430,1602597239.957562,vicon,object name,0.44787832539534744,1.3738936366939225,1.0,2.6584385943336324,1.0,2.0,3.9106821782328094,"1691283,","0.62,","0.59,","-0.58,","-8.84,","3.96,","-20.85,","-24.31,","36.46,",-25.81,"1691293,","0.58,","0.65,","-0.52,","-31.16,","1.28,","-13.41,","-22.81,","38.26,",-24.76,63615,1602597239.953728,1234,0.6758382378464045,1.1570912821075772,2.009725286439055,0.9158146564692666,1.5651054453280255,2.3858534712727932,0.9281158326526066,1.8342126457123742,2.072569953163733,63607,1602597239.953728,4321,0.7443103194236755,1.2440037727355957,2.97261643409729,3.0528838634490967,4.700966835021973,5.944201469421387
,,155359.981003,2.7653603553771973,44432,1602597239.977624,vicon,object name,0.4590420409495014,1.7324917784041276,1.0,2.573725258816508,1.0,2.0,3.4359544412847676,"1691303,","0.44,","0.64,","-0.55,","-27.32,","-15.43,","0.67,","-24.61,","40.36,",-22.06,"1691313,","0.28,","0.55,","-0.54,","-40.61,","-16.46,","7.80,","-23.11,","41.56,",-19.50,63617,1602597239.973774,1234,0.5150799868482073,1.7058210774561062,2.4343333124981084,0.3959772617059665,1.0612998146894819,2.499767846883242,0.2465679464520596,1.6993774562163089,2.6811325680534708,63609,1602597239.973774,4321,0.42508649826049805,1.3892247676849365,2.8173913955688477,3.5699462890625,4.402029037475586,5.481019973754883
,,155400.04804,2.832397699356079,44438,1602597240.37619,vicon,object name,0.9489958979172044,1.504923522296063,1.0,2.4530757894018045,1.0,2.0,3.7449252172442207,"1691370,","0.20,","0.61,","-0.67,","-67.07,","-12.93,","17.01,","-19.35,","36.46,",-9.15,"1691380,","0.08,","0.50,","-0.65,","-94.39,","5.61,","15.00,","-20.11,","33.76,",-12.60,63624,1602597240.43748,1234,0.4437461894397824,1.0928868710392259,2.98689574838491,0.6072044985664082,1.851676322119339,2.5825023560371854,0.7858302670703242,1.1342703839817232,2.3839329953648054,63616,1602597240.43748,4321,0.6033456921577454,1.6310231685638428,2.486469030380249,3.072890281677246,4.471705436706543,5.092252731323242
,,155400.068728,2.853093385696411,44440,1602597240.57576,vicon,object name,0.43866774955561694,1.2067380893701818,1.0,2.7643172178561897,1.0,2.0,3.2983476142026205,"1691390,","0.07,","0.51,","-0.75,","-110.06,","38.05,","-5.06,","-16.05,","30.76,",-16.20,"1691401,","0.19,","0.64,","-0.68,","-118.35,","81.10,","-16.46,","-13.50,","25.06,",-18.15,63626,1602597240.63832,1234,0.2538602841861446,1.3213726410465374,2.829113000597258,0.7491276128131952,1.8848074270427548,2.4140977941498,0.18042758048929264,1.1899397330249373,2.875680448920984,63618,1602597240.63832,4321,0.28240591287612915,1.9618079662322998,2.463346242904663,3.9299380779266357,4.686322212219238,5.859585762023926
,,155400.089145,2.8735039234161377,44442,1602597240.77648,vicon,object name,0.44670319673961667,1.5400099127167004,1.0,2.1339155502388003,1.0,2.0,3.7770608265297527,"1691411,","0.35,","0.80,","-0.53,","-116.95,","98.41,","-12.93,","-12.30,","24.61,",-21.01,"1691421,","0.44,","0.93,","-0.36,","-101.83,","85.79,","9.15,","-10.20,","23.86,",-25.21,63628,1602597240.83736,1234,0.6484309110470992,1.7101487559649726,2.331453501901546,0.2255041635561862,1.9801720440299289,2.9597876874942317,0.4575366223203907,1.6803908139806691,2.278440601025084,63620,1602597240.83736,4321,0.6883055567741394,1.8357247114181519,2.824321746826172,3.4233858585357666,4.283411979675293,5.634610176086426
,,155400.109732,2.894094228744507,44444,1602597240.97606,vicon,object name,0.31987306468118837,1.7231804408024873,1.0,2.054865649840019,1.0,2.0,3.2034356028183013,"1691431,","0.40,","0.92,","-0.40,","-100.85,","50.91,","39.33,","-9.60,","24.91,",-26.56,"1691442,","0.35,","0.85,","-0.39,","-105.24,","28.78,","57.07,","-7.95,","25.06,",-30.76,63630,1602597240.103793,1234,0.1537009109707702,1.7541330872216179,2.1523800780154896,0.02640779208962385,1.9973385384716718,2.212168113915884,0.04056720759377186,1.2076473179090308,2.9363006199702895,63622,1602597240.103793,4321,0.13801494240760803,1.9104976654052734,2.929436683654785,3.088674545288086,4.744030952453613,5.01283073425293
,,155400.130201,2.9145596027374268,44447,1602597240.127639,vicon,object name,0.626174821775988,1.8751960066208304,1.0,2.687432031871048,1.0,2.0,3.8577406500299887,"1691452,","0.33,","0.81,","-0.48,","-113.41,","19.15,","67.62,","-10.05,","25.06,",-31.81,"1691462,","0.29,","0.78,","-0.54,","-144.27,","30.18,","88.29,","-10.65,","24.91,",-30.16,63632,1602597240.123853,1234,0.24144056056627672,1.9806526366754862,2.3660264013087478,0.676175735359548,1.2368942901822506,2.9392210300569213,0.7425133306370143,1.2828844708047953,2.920177579917024,63624,1602597240.123853,4321,0.3053906261920929,1.3485718965530396,2.0165820121765137,3.3199565410614014,4.05064058303833,5.661830902099609
,,155400.150798,2.9351744651794434,44449,1602597240.147655,vicon,object name,0.890551005771097,1.5193898372512984,1.0,2.6876809886821915,1.0,2.0,3.9810425573583323,"1691472,","0.41,","0.65,","-0.53,","-183.84,","52.26,","101.95,","-13.05,","27.01,",-28.81,"1691483,","0.46,","0.43,","-0.66,","-242.44,","66.59,","132.56,","-13.50,","25.81,",-26.26,63634,1602597240.143746,1234,0.6211466748067539,1.1671123576348275,2.170595236701342,0.6145799257780554,1.5726668521689289,2.5622446088021595,0.6536756111865442,1.1461255152971734,2.319460851032484,63626,1602597240.143746,4321,0.9107774496078491,1.2716935873031616,2.9523446559906006,3.9916276931762695,4.847756862640381,5.756325721740723
,,155400.218867,3.0032248497009277,44455,1602597240.207566,vicon,object name,0.004040997588856676,1.5581659092291797,1.0,2.5535091971284953,1.0,2.0,3.6565203948469933,"1691493,","0.64,","0.27,","-0.73,","-338.90,","116.77,","129.27,","-15.00,","26.86,",-25.36,"1691551,","2.17,","-0.52,","-0.71,","-147.44,","149.57,","138.05,","-21.31,","35.26,",-16.80,63641,1602597240.213889,1234,0.1769932553289678,1.0633761733985274,2.8010140438982347,0.30504237794991607,1.5293315234467997,2.681119828121389,0.1671197517331814,1.9724338649378368,2.605586608838961,63633,1602597240.213889,4321,0.5873755812644958,1.2796679735183716,2.5291991233825684,3.218317747116089,4.833508491516113,5.190643787384033
,,155400.23934,3.023698568344116,44457,1602597240.22757,vicon,object name,0.04100170961941407,1.6346848189369765,1.0,2.1455256990945797,1.0,2.0,3.166861543179507,"1691561,","2.01,","-0.57,","-0.94,","-84.88,","132.74,","42.50,","-21.16,","37.21,",-16.65,"1691571,","1.68,","-0.31,","-1.11,","-56.10,","146.34,","-48.78,","-22.21,","38.26,",-15.30,63643,1602597240.233771,1234,0.844591380269207,1.7923690539832613,2.267553458761563,0.9391617009367867,1.263437109249726,2.484651852624861,0.2695231737625331,1.038351612882758,2.837814672762281,63635,1602597240.233771,4321,0.028355112299323082,1.8133655786514282,2.0379955768585205,3.6295828819274902,4.232040882110596,5.801713943481445
,,155400.260146,3.0445048809051514,44460,1602597240.257565,vicon,object name,0.8131636401798845,1.9929106957513896,1.0,2.3297785148633774,1.0,2.0,3.7577392282955406,"1691582,","1.15,","-0.21,","-1.14,","-81.52,","161.16,","-116.83,","-22.36,","40.51,",-15.15,"1691592,","0.48,","-0.15,","-1.02,","-129.27,","195.79,","-168.90,","-22.51,","41.41,",-14.70,63645,1602597240.253765,1234,0.3180713762576046,1.536150669373534,2.9362127277366534,0.5728014674389501,1.7750416152355224,2.935247947483298,0.1740344546550967,1.8747830340464728,2.8838060503566623,63637,1602597240.253765,4321,0.8095171451568604,1.8102872371673584,2.64837908744812,3.1995198726654053,4.0582075119018555,5.37045431137085
,,155400.280795,3.065155267715454,44462,1602597240.277632,vicon,object name,0.058175391527191866,1.0170717856841422,1.0,2.112362654850705,1.0,2.0,3.575161225720492,"1691602,","-0.30,","0.02,","-0.47,","-179.82,","266.83,","-202.20,","-23.71,","43.06,",-14.40,"1691613,","-1.25,","0.56,","0.46,","-220.00,","340.98,","-208.17,","-24.91,","42.16,",-16.05,63647,1602597240.27391,1234,0.9155932090527634,1.7639748429423134,2.594083707128906,0.7454902556201446,1.746569369317155,2.58819001023788,0.04600571262766606,1.7338086713393512,2.4187539509212304,63639,1602597240.27391,4321,0.4517960250377655,1.5893924236297607,2.1804697513580322,3.408614158630371,4.0558342933654785,5.696995258331299
,,155400.301376,3.085733652114868,44464,1602597240.297561,vicon,object name,0.9148208064921018,1.9095005055723195,1.0,2.0863215925886482,1.0,2.0,3.3679706473081916,"1691623,","-1.91,","0.92,","1.46,","-235.12,","383.54,","-161.59,","-26.26,","45.76,",-15.75,"1691633,","-2.04,","1.47,","2.46,","-251.16,","352.44,","-82.26,","-24.46,","46.21,",-15.45,63649,1602597240.293831,1234,0.5257347809428042,1.4562234798250369,2.925775459646974,0.9264862918667238,1.634393558862509,2.079756580907775,0.7310095684213084,1.672475655246672,2.3465759014490817,63641,1602597240.293831,4321,0.9334181547164917,1.4920700788497925,2.8581535816192627,3.5345115661621094,4.246330738067627,5.606383323669434
,,155400.322025,3.106383800506592,44466,1602597240.317543,vicon,object name,0.11065210814256843,1.71671373678383,1.0,2.9155095479947506,1.0,2.0,3.1457195153611277,"1691644,","-2.04,","2.10,","2.95,","-264.63,","224.94,","8.48,","-25.21,","45.16,",-15.75,"1691654,","-1.98,","2.87,","2.92,","-261.52,","69.21,","91.77,","-26.26,","46.81,",-16.50,63651,1602597240.313868,1234,0.6433471206232103,1.3837689953288113,2.2689204443642197,0.09711158932953456,1.7902922930697867,2.090600249111337,0.5377488071734617,1.661697594164273,2.924935534581064,63643,1602597240.313868,4321,0.23970891535282135,1.052964687347412,2.2427406311035156,3.5615153312683105,4.733972549438477,5.358663558959961
,,155400.342834,3.127192497253418,44468,1602597240.337589,vicon,object name,0.12712691617073624,1.1450151442991952,1.0,2.088337588457313,1.0,2.0,3.706575656834164,"1691664,","-2.01,","3.63,","2.56,","-211.95,","-42.32,","155.24,","-23.26,","45.31,",-14.70,"1691675,","-1.92,","4.07,","2.30,","-98.05,","-134.88,","242.87,","-24.46,","43.66,",-15.75,63653,1602597240.333755,1234,0.648818478403546,1.9041233136531939,2.8480838922342167,0.030553390404266967,1.4777680680510952,2.414431129619867,0.8480207718962864,1.8507240340982465,2.398321738552084,63645,1602597240.333755,4321,0.748874306678772,1.879499912261963,2.644646406173706,3.0907905101776123,4.001526832580566,5.968841075897217
,,155400.410419,3.1947760581970215,44475,1602597240.407548,vicon,object name,0.17402170826537833,1.9233934656573548,1.0,2.89808231177246,1.0,2.0,3.047402054929989,"1691732,","3.03,","-6.87,","-1.67,","238.23,","-413.90,","297.01,","-6.60,","20.11,",-21.31,"1691742,","3.85,","-6.29,","-4.60,","267.56,","-441.46,","114.27,","-4.80,","19.50,",-22.66,63660,1602597240.40386,1234,0.6741635163737434,1.8850349007968639,2.814420534244931,0.27414272441032517,1.9941201057742037,2.4903398545545445,0.610774452905968,1.3610672687183363,2.490022571749542,63652,1602597240.40386,4321,0.7131601572036743,1.3245958089828491,2.282815933227539,3.123800277709961,4.341623306274414,5.013584136962891
,,155400.431052,3.215409517288208,44477,1602597240.427557,vicon,object name,0.6557115722566038,1.1598655804913685,1.0,2.1212847940493007,1.0,2.0,3.5262980958563155,"1691753,","3.63,","-2.84,","-4.63,","180.00,","-179.39,","-119.70,","-1.95,","18.75,",-21.91,"1691763,","2.93,","-1.47,","-4.24,","192.93,","59.21,","-195.61,","-2.40,","19.50,",-23.56,63662,1602597240.423848,1234,0.6060931729122034,1.06291998738751,2.766878239740775,0.2733406956913831,1.8793451115194482,2.6723134124148276,0.7520390987024597,1.6943466880588072,2.712940395906047,63654,1602597240.423848,4321,0.6907557249069214,1.579729676246643,2.3726961612701416,3.1927833557128906,4.050256729125977,5.999091625213623
,,155400.45135,3.235710620880127,44479,1602597240.447602,vicon,object name,0.1869078461629321,1.6992020183464083,1.0,2.51027410924402,1.0,2.0,3.488993113088362,"1691773,","2.54,","-1.06,","-3.29,","1.22,","134.27,","-171.34,","-1.80,","18.15,",-26.11,"1691783,","2.17,","-1.01,","-1.56,","-213.05,","185.43,","-138.11,","-3.75,","20.86,",-27.01,63664,1602597240.443777,1234,0.5961618137468941,1.1327370840444606,2.845908139815712,0.35674993525745935,1.3787622612304444,2.5898819083758355,0.3952382510252852,1.4874530201770182,2.461643111677141,63656,1602597240.443777,4321,0.7160035967826843,1.586795687675476,2.192473888397217,3.7044193744659424,4.5893025398254395,5.515365123748779
,,155400.471898,3.256272315979004,44481,1602597240.467582,vicon,object name,0.3973358165124494,1.5746117974354936,1.0,2.019462572322042,1.0,2.0,3.151299691681399,"1691793,","1.82,","-0.49,","-0.47,","-269.21,","188.05,","-162.44,","-4.50,","21.16,",-27.76,"1691804,","1.50,","0.54,","-0.20,","-211.83,","175.30,","-218.05,","-3.00,","20.56,",-24.91,63666,1602597240.463794,1234,0.14647468949880638,1.1006501415216645,2.97314540737099,0.366380463943937,1.1597539965352706,2.761291018912622,0.40783131437356057,1.157918557498749,2.1469962240939666,63658,1602597240.463794,4321,0.20963799953460693,1.6238740682601929,2.3099730014801025,3.891522169113159,4.778547286987305,5.483643531799316
,,155400.492401,3.2767586708068848,44483,1602597240.487588,vicon,object name,0.7055761058756767,1.6030798229501189,1.0,2.708227114540411,1.0,2.0,3.6931509590439853,"1691814,","1.64,","0.72,","-0.01,","-125.37,","169.76,","-259.15,","-6.60,","19.80,",-23.26,"1691824,","1.37,","0.55,","-0.02,","-86.71,","130.91,","-273.54,","-6.60,","19.50,",-19.50,63668,1602597240.483753,1234,0.1065681038866757,1.476249657118012,2.79043200084735,0.1090113376361661,1.498737242711503,2.0607954680528806,0.4691592392623455,1.8426770497392755,2.2983630357696656,63660,1602597240.483753,4321,0.4465249478816986,1.1832817792892456,2.188547372817993,3.9992783069610596,4.920727729797363,5.306269645690918
,,155400.51309,3.297450065612793,44485,1602597240.507628,vicon,object name,0.8542748326556573,1.0843275147345461,1.0,2.346939200490163,1.0,2.0,3.042784782560788,"1691834,","1.25,","0.34,","-0.15,","-100.55,","89.45,","-287.93,","-8.25,","22.21,",-19.20,"1691845,","0.88,","0.16,","-0.01,","-132.80,","98.05,","-289.70,","-12.15,","23.26,",-18.90,63670,1602597240.503837,1234,0.246772638094504,1.1769439363981409,2.761240301620445,0.6824075796530522,1.8998829307022946,2.8206515136572574,0.26543904533808593,1.9539480944134087,2.615981196545757,63662,1602597240.503837,4321,0.6865367889404297,1.7805520296096802,2.2389538288116455,3.221303701400757,4.873943328857422,5.44137716293335
,,155400.581298,3.3656580448150635,44492,1602597240.577616,vicon,object name,0.14798133459978358,1.189531441808585,1.0,2.839665092334437,1.0,2.0,3.093544020179169,"1691855,","0.49,","0.17,","0.37,","-133.96,","148.17,","-274.88,","-14.25,","25.36,",-17.55,"1691913,","-1.37,","0.73,","0.52,","1.77,","26.71,","-179.82,","-19.65,","36.91,",-10.20,63677,1602597240.573769,1234,0.6209002294140445,1.079813306443526,2.8117730917333272,0.8521145900434277,1.5242166262447086,2.2727903613678855,0.727167434056838,1.206875157047808,2.040070567692767,63669,1602597240.573769,4321,0.03904559835791588,1.299365520477295,2.815054416656494,3.296687126159668,4.56363582611084,5.665188312530518
,,155400.601914,3.386272430419922,44494,1602597240.597558,vicon,object name,0.5809325423650098,1.6134943817177374,1.0,2.1198306563945497,1.0,2.0,3.278054508734464,"1691923,","-1.65,","1.03,","0.45,","23.72,","41.89,","-177.26,","-21.91,","37.66,",-11.40,"1691934,","-1.87,","1.28,","0.40,","41.28,","57.20,","-154.27,","-24.76,","38.71,",-11.70,63679,1602597240.593863,1234,0.4822747944205744,1.4868475259869367,2.3123510556749487,0.7577763970147479,1.2259126087306496,2.151268852544308,0.5117539767444084,1.737459396577945,2.5384251543929035,63671,1602597240.593863,4321,0.7213044762611389,1.1251201629638672,2.7703943252563477,3.62172794342041,4.476557731628418,5.1932053565979
,,155400.622718,3.4070827960968018,44496,1602597240.617631,vicon,object name,0.2726950034284008,1.0444399744222437,1.0,2.518345028039474,1.0,2.0,3.836358204607043,"1691944,","-2.03,","1.55,","0.55,","36.22,","75.49,","-106.10,","-22.51,","41.11,",-11.55,"1691954,","-2.00,","1.79,","0.80,","27.26,","85.12,","-37.07,","-24.91,","42.46,",-8.55,63681,1602597240.613832,1234,0.13627016309540552,1.3688186425304316,2.0362394481216306,0.8218167373934503,1.1151938552994252,2.928439752410704,0.6101222852941186,1.5788212130089354,2.697703517954982,63673,1602597240.613832,4321,0.5395588874816895,1.7005852460861206,2.593384027481079,3.8487935066223145,4.052051544189453,5.106352806091309
,,155400.642956,3.4273133277893066,44498,1602597240.637578,vicon,object name,0.27553339180070624,1.6271619113468239,1.0,2.064961195012721,1.0,2.0,3.9033227561889983,"1691964,","-2.08,","2.13,","1.14,","21.52,","76.83,","44.21,","-23.11,","44.71,",-7.05,"1691975,","-2.17,","2.37,","1.23,","39.45,","50.12,","139.88,","-23.41,","43.66,",-7.35,63683,1602597240.633766,1234,0.06010383756666071,1.6850093692210257,2.79679204447028,0.33397575768749177,1.8340277689006639,2.8000199442998097,0.8088718463294997,1.9551081972698405,2.4400558095984324,63675,1602597240.633766,4321,0.8342329859733582,1.323725700378418,2.460780382156372,3.4090306758880615,4.25236701965332,5.121985912322998
,,155400.663161,3.447542190551758,44500,1602597240.65758,vicon,object name,0.8534733148498772,1.0390300731509634,1.0,2.170668960944579,1.0,2.0,3.00257647451011,"1691985,","-2.04,","2.36,","1.43,","58.48,","35.00,","255.00,","-21.91,","43.36,",-4.35,"1691995,","-1.86,","2.20,","1.48,","61.04,","-4.51,","373.60,","-23.11,","43.66,",-6.30,63685,1602597240.653858,1234,0.0878910409227468,1.058926132448327,2.9215331312781045,0.26246988509187963,1.7121313234739903,2.765739674450805,0.6314949922631697,1.423433764241668,2.8689107275881205,63677,1602597240.653858,4321,0.6619294285774231,1.4816020727157593,2.3974292278289795,3.381027936935425,4.892077445983887,5.277088165283203
,,155400.748547,3.532904863357544,44508,1602597240.737549,vicon,object name,0.624852390787445,1.2745430208286377,1.0,2.4220358135238196,1.0,2.0,3.2808596529033864,"1692005,","-1.79,","2.00,","1.38,","50.12,","-59.76,","497.99,","-22.81,","43.21,",-6.90,"1692080,","0.79,","0.55,","0.80,","40.67,","11.40,","26.89,","-20.86,","40.51,",-3.60,63694,1602597240.743783,1234,0.4070226386517294,1.1966815674831177,2.7053629055386983,0.06484952395783594,1.4295651430638814,2.682969572578675,0.9402337530364062,1.025042204286232,2.286407034859735,63686,1602597240.743783,4321,0.3330649733543396,1.665790319442749,2.074347496032715,3.162785291671753,4.551224231719971,5.99038028717041
,,155400.768863,3.5532217025756836,44510,1602597240.75759,vicon,object name,0.2752478994166,1.3088868088563164,1.0,2.855365732724345,1.0,2.0,3.1868467162809173,"1692090,","0.85,","0.55,","0.73,","52.20,","7.13,","27.01,","-20.71,","42.16,",-5.10,"1692101,","0.88,","0.55,","0.66,","46.10,","-5.06,","35.43,","-20.86,","39.91,",-3.00,63696,1602597240.763872,1234,0.1904104890490842,1.4459433157676462,2.7666505438398086,0.31358857564310916,1.615091987828482,2.6282944298992854,0.27931240205418173,1.9454944860026977,2.241286793682545,63688,1602597240.763872,4321,0.9034602046012878,1.878138780593872,2.5061612129211426,3.4344844818115234,4.776462078094482,5.512318134307861
,,155400.835498,3.6198556423187256,44517,1602597240.827575,vicon,object name,0.8403076135870929,1.0389389260347923,1.0,2.6477445353494753,1.0,2.0,3.5813839222169888,"1692110,","0.91,","0.56,","0.62,","29.70,","-23.41,","40.91,","-20.41,","40.36,",-4.50,"1692167,","0.94,","0.52,","0.58,","19.76,","-43.72,","40.73,","-18.60,","40.66,",-5.10,63702,1602597240.823853,1234,0.043674587393559894,1.6740020144097472,2.4041255568409965,0.942019718316085,1.7476010645399456,2.591177452740469,0.10186514949730063,1.757959805880536,2.81916562819859,63694,1602597240.823853,4321,0.7373092770576477,1.3799442052841187,2.5761375427246094,3.3810017108917236,4.780840873718262,5.170798301696777
,,155400.854879,3.6392650604248047,44519,1602597240.847593,vicon,object name,0.18164269301511016,1.5803171676132302,1.0,2.3626544689339863,1.0,2.0,3.816398888632144,"1692177,","0.94,","0.49,","0.48,","11.89,","-65.43,","37.80,","-19.20,","39.46,",-5.70,"1692186,","0.90,","0.46,","0.41,","6.77,","-79.88,","30.73,","-19.50,","38.11,",-5.70,63704,1602597240.843852,1234,0.8283965518670513,1.2452848449040061,2.9870052771498172,0.39540159932324304,1.0346091456352768,2.4420886482275677,0.4509572725017933,1.9832040496487395,2.9329099311153004,63696,1602597240.843852,4321,0.6789383292198181,1.7629358768463135,2.1188437938690186,3.351900339126587,4.707531452178955,5.589962959289551
,,155400.874123,3.6584818363189697,44521,1602597240.867647,vicon,object name,0.6199153732190319,1.4098752424709982,1.0,2.3338675732067373,1.0,2.0,3.2062875425859962,"1692196,","0.86,","0.47,","0.31,","8.96,","-85.73,","22.93,","-21.61,","38.71,",-6.75,"1692206,","0.81,","0.45,","0.24,","14.27,","-81.34,","13.41,","-21.76,","37.96,",-5.85,63706,1602597240.863809,1234,0.2788750876143822,1.1298808085465124,2.3965401284932586,0.1874170060555974,1.31226406904163,2.9707910380332403,0.7656933460833489,1.1924300133860428,2.0572695861621733,63698,1602597240.863809,4321,0.8622874617576599,1.729117512702942,2.2863378524780273,3.7325026988983154,4.150813579559326,5.677569389343262
,,155400.893346,3.677703380584717,44523,1602597240.887568,vicon,object name,0.9460576099299876,1.2869922614383942,1.0,2.6904262249042237,1.0,2.0,3.3675617026966305,"1692215,","0.79,","0.44,","0.14,","28.11,","-73.66,","0.24,","-20.26,","37.66,",-6.00,"1692225,","0.81,","0.52,","0.04,","26.40,","-56.34,","-15.30,","-19.50,","38.11,",-6.75,63708,1602597240.883808,1234,0.8609604890838282,1.9439894259017352,2.8717065531121198,0.09290005969533843,1.0218858964917776,2.2760731528918243,0.7164344768268339,1.2258604891777862,2.4310235906149016,63700,1602597240.883808,4321,0.5375077128410339,1.841328740119934,2.2357935905456543,3.2249720096588135,4.825170993804932,5.738992691040039
,,155400.912437,3.6967945098876953,44525,1602597240.90757,vicon,object name,0.5038560595607005,1.5460841712343223,1.0,2.082840311802739,1.0,2.0,3.6120521389201627,"1692235,","0.75,","0.55,","0.10,","18.72,","-32.32,","-13.96,","-20.41,","37.51,",-7.20,"1692244,","0.76,","0.62,","0.13,","7.56,","-21.65,","-4.63,","-20.71,","38.26,",-6.45,63710,1602597240.903844,1234,0.9360282323257061,1.0623444063714764,2.9303258753546153,0.5650426260189626,1.5946185903785577,2.3743479094714814,0.4858381577228128,1.975405291502463,2.28083435126877,63702,1602597240.903844,4321,0.46358856558799744,1.3028475046157837,2.6373212337493896,3.856563091278076,4.342845916748047,5.549409866333008
,,155400.931739,3.716096878051758,44527,1602597240.927614,vicon,object name,0.8801259695570096,1.6291062509229264,1.0,2.4151914118015476,1.0,2.0,3.8799232479875068,"1692254,","0.83,","0.65,","0.20,","-8.35,","-20.67,","3.90,","-20.41,","38.26,",-8.55,"1692263,","0.85,","0.60,","0.23,","-14.63,","-30.79,","6.95,","-19.35,","39.01,",-7.80,63712,1602597240.923847,1234,0.8156189933524538,1.9378654401824114,2.2506818410676566,0.8183171433997893,1.4378414297569253,2.206305057625846,0.19357539404141777,1.207196050947204,2.8915686982432156,63704,1602597240.923847,4321,0.1380431056022644,1.5391916036605835,2.6095149517059326,3.1151812076568604,4.296995639801025,5.3015217781066895
,,155400.950747,3.7351040840148926,44529,1602597240.947609,vicon,object name,0.5566244670196625,1.784625239551154,1.0,2.7266970043425873,1.0,2.0,3.456911395186195,"1692273,","0.83,","0.56,","0.17,","-12.07,","-42.99,","4.94,","-21.31,","37.06,",-6.75,"1692283,","0.82,","0.56,","0.12,","-6.34,","-43.84,","0.37,","-20.41,","36.91,",-8.25,63714,1602597240.94375,1234,0.36959080286894486,1.761233151496421,2.859447180443916,0.5663531458921217,1.604447966731477,2.5433379532921094,0.026606902971470836,1.667701979955692,2.2272213530550946,63706,1602597240.94375,4321,0.9938693642616272,1.8934392929077148,2.0989911556243896,3.9769153594970703,4.120495796203613,5.980780601501465
,,155401.017988,3.8023455142974854,44535,1602597241.756,vicon,object name,0.3964643844880761,1.0408336830323623,1.0,2.631931107468892,1.0,2.0,3.849599942586755,"1692292,","0.80,","0.53,","0.09,","-2.07,","-36.28,","-5.06,","-20.11,","37.51,",-6.45,"1692350,","0.77,","0.58,","0.08,","1.52,","-23.66,","-12.38,","-19.05,","39.01,",-6.15,63721,1602597241.13843,1234,0.054194912462580014,1.4192000089564472,2.428247386173267,0.6593644250499766,1.865961987693718,2.6788938868062666,0.9387067650555532,1.901581287798777,2.655409381925576,63713,1602597241.13843,4321,0.2610594928264618,1.6701414585113525,2.4722635746002197,3.2043726444244385,4.835887908935547,5.129458427429199
,,155401.037047,3.821406602859497,44537,1602597241.27559,vicon,object name,0.9410809521427791,1.4644300424244254,1.0,2.280470411557377,1.0,2.0,3.9470544609170006,"1692359,","0.71,","0.58,","0.07,","4.88,","-7.74,","-16.16,","-20.71,","37.96,",-7.80,"1692369,","0.69,","0.66,","0.07,","5.06,","9.27,","-20.18,","-20.71,","37.96,",-7.80,63722,1602597241.23845,1234,0.009276417442486862,1.1714979928849116,2.7207247719378924,0.2046967453007129,1.8352910650498055,2.7204585383872475,0.7112968967539169,1.8872511571241213,2.611744419241631,63714,1602597241.23845,4321,0.8622560501098633,1.9612579345703125,2.98893666267395,3.2573776245117188,4.579151630401611,5.020340919494629
,,155401.056206,3.840566396713257,44539,1602597241.47639,vicon,object name,0.33858000510460384,1.1465952401605135,1.0,2.3595287549326227,1.0,2.0,3.7446511709996386,"1692378,","0.67,","0.68,","0.17,","-0.24,","28.29,","-12.13,","-20.41,","37.21,",-6.45,"1692388,","0.64,","0.68,","0.30,","-6.65,","37.50,","-5.49,","-20.11,","38.26,",-6.90,63724,1602597241.43757,1234,0.17063854324723793,1.1462572630531969,2.9914582747342484,0.6153242426701813,1.86103783459109,2.3818824999899366,0.9442768797329607,1.1319764074492782,2.0558859590629344,63716,1602597241.43757,4321,0.20061472058296204,1.758588433265686,2.4612698554992676,3.4278717041015625,4.896298408508301,5.763932228088379
,,155401.075503,3.859866142272949,44541,1602597241.67564,vicon,object name,0.7774361302534435,1.8344211744757926,1.0,2.475267587328077,1.0,2.0,3.2364182385935423,"1692397,","0.66,","0.65,","0.40,","-15.85,","31.65,","-3.96,","-21.16,","37.21,",-7.50,"1692407,","0.59,","0.65,","0.53,","-22.87,","16.16,","-6.71,","-20.56,","37.36,",-6.75,63726,1602597241.63768,1234,0.26831635986875757,1.8837050300354887,2.4076012217791662,0.40656038317077137,1.2040287894546857,2.207357555545079,0.7605386756392079,1.958043498074989,2.1873121824685047,63718,1602597241.63768,4321,0.8192834258079529,1.943113923072815,2.992698907852173,3.0088047981262207,4.417661666870117,5.16974401473999
,,155401.094503,3.8788607120513916,44543,1602597241.87571,vicon,object name,0.37622937374992305,1.731214051054186,1.0,2.1239377384323377,1.0,2.0,3.5040298086681165,"1692417,","0.58,","0.76,","0.56,","-23.78,","-3.54,","-8.84,","-16.95,","35.41,",-7.50,"1692426,","0.50,","0.74,","0.58,","-18.35,","-19.21,","-1.89,","-16.95,","34.81,",-5.85,63728,1602597241.83736,1234,0.7020722821885713,1.3916375474380018,2.612857631335039,0.33145926315944474,1.7264260569157832,2.8421255211717593,0.9577677828563207,1.908937998189144,2.6120047690598875,63720,1602597241.83736,4321,0.6674445271492004,1.9823840856552124,2.175581216812134,3.3470473289489746,4.2997660636901855,5.749047756195068
,,155401.113748,3.8981053829193115,44545,1602597241.107576,vicon,object name,0.19494402486755857,1.5281184116900008,1.0,2.504264537855461,1.0,2.0,3.2204827692536924,"1692436,","0.44,","0.78,","0.54,","-7.87,","-29.82,","4.21,","-16.95,","31.96,",-6.15,"1692445,","0.40,","0.77,","0.51,","3.05,","-32.32,","15.00,","-14.55,","31.36,",-7.65,63730,1602597241.103786,1234,0.050181161892754456,1.2200701193262553,2.178910570080859,0.7933389999129716,1.1667821694777771,2.7828227131685543,0.46459851353198367,1.8005136417331953,2.3687707692933877,63722,1602597241.103786,4321,0.7932784557342529,1.7520661354064941,2.059309244155884,3.3749489784240723,4.321660995483398,5.516037464141846
,,155401.132919,3.917271852493286,44547,1602597241.127609,vicon,object name,0.9976112316113745,1.6370337590837825,1.0,2.706256873433302,1.0,2.0,3.3401893907718705,"1692455,","0.31,","0.86,","0.51,","11.89,","-26.95,","31.52,","-15.90,","28.06,",-9.90,"1692464,","0.30,","0.87,","0.61,","21.59,","-13.90,","60.43,","-13.20,","26.86,",-10.80,63732,1602597241.123774,1234,0.2586015713630526,1.93665999599167,2.840529317938951,0.006486832162889478,1.7825525834039015,2.2576189765405834,0.7308826796072898,1.4019127789929144,2.5106061970040128,63724,1602597241.123774,4321,0.07121828198432922,1.1269208192825317,2.4331982135772705,3.8029820919036865,4.509973526000977,5.161191463470459
,,155401.199981,3.98433518409729,44554,1602597241.197633,vicon,object name,0.26457979927854225,1.8643563318068899,1.0,2.478317193397355,1.0,2.0,3.1293516406629633,"1692474,","0.35,","0.84,","0.75,","22.74,","-18.66,","89.94,","-13.05,","24.61,",-12.60,"1692532,","0.27,","0.88,","0.80,","9.88,","-50.24,","111.89,","-6.75,","22.06,",-20.71,63739,1602597241.193714,1234,0.6822902259172156,1.0172404073618524,2.148217654797752,0.7086171488250644,1.7264324519388499,2.2962832766504024,0.39594438300288615,1.0326263782641538,2.3885392749568557,63731,1602597241.193714,4321,0.6470947265625,1.8723384141921997,2.6860456466674805,3.577244758605957,4.5109357833862305,5.795690536499023
,,155401.21938,4.003734350204468,44555,1602597241.207706,vicon,object name,0.6789814484849308,1.3314724338057102,1.0,2.757472627951884,1.0,2.0,3.5600335143190938,"1692541,","0.13,","0.99,","0.92,","-15.91,","-91.34,","142.93,","-9.00,","21.91,",-22.96,"1692551,","0.15,","1.03,","0.98,","-40.73,","-148.60,","183.11,","-10.35,","23.26,",-23.56,63741,1602597241.213868,1234,0.9747259836608619,1.8022065145476045,2.6869769044258676,0.07447693724758964,1.5762049812602195,2.0209577958925147,0.7687905639105846,1.128161002623999,2.9020574056661896,63733,1602597241.213868,4321,0.16607683897018433,1.5181984901428223,2.248765468597412,3.0959360599517822,4.609672546386719,5.066278457641602
,,155401.239084,4.023441791534424,44557,1602597241.227689,vicon,object name,0.9942676484552786,1.953342608160174,1.0,2.2494277398277225,1.0,2.0,3.328862372150634,"1692561,","0.10,","1.02,","0.83,","-61.10,","-217.80,","226.71,","-12.75,","24.16,",-22.81,"1692570,","0.10,","0.88,","0.60,","-75.43,","-285.37,","257.56,","-12.90,","25.36,",-22.21,63743,1602597241.233818,1234,0.2045121493492833,1.644876090135659,2.646548310249126,0.46439361337992113,1.715737720303482,2.153937353607034,0.633887937454952,1.599013370762253,2.9536642116939857,63735,1602597241.233818,4321,0.9593526124954224,1.7489017248153687,2.6351983547210693,3.5760908126831055,4.414036750793457,5.885020732879639
,,155401.258345,4.0427045822143555,44559,1602597241.247567,vicon,object name,0.7426416452434824,1.9358923248190298,1.0,2.808191897316279,1.0,2.0,3.3794720703029157,"1692580,","0.04,","0.64,","0.49,","-86.04,","-347.80,","272.07,","-15.45,","26.26,",-20.11,"1692590,","0.08,","0.59,","0.09,","-83.96,","-399.57,","283.54,","-15.45,","27.01,",-22.51,63745,1602597241.253759,1234,0.14824458585443923,1.9320085053197447,2.381385700969027,0.030254342708609272,1.0784158859343214,2.7969440164474815,0.3653483136641935,1.6706272966523739,2.6543743598851597,63737,1602597241.253759,4321,0.543142557144165,1.3460745811462402,2.9797377586364746,3.773005247116089,4.367281913757324,5.968317985534668
,,155401.277949,4.062304258346558,44561,1602597241.267549,vicon,object name,0.3917511987541995,1.7557130822901001,1.0,2.7321758558729483,1.0,2.0,3.6149660645480908,"1692600,","0.31,","0.36,","-0.28,","-80.79,","-420.91,","308.17,","-17.40,","31.36,",-19.20,"1692609,","0.73,","-0.24,","-0.58,","-92.87,","-420.91,","309.27,","-20.56,","34.51,",-18.90,63747,1602597241.27377,1234,0.6720882903122896,1.7196723647780683,2.28113480183708,0.615510818083263,1.0506863011015597,2.211349434077902,0.2433825385617191,1.6300338770484948,2.0655146215606726,63739,1602597241.27377,4321,0.4203713536262512,1.1579371690750122,2.83162784576416,3.714649200439453,4.143877983093262,5.206204891204834
,,155401.297604,4.0819573402404785,44563,1602597241.28759,vicon,object name,0.18814760673624553,1.1617016952126695,1.0,2.5155885192990213,1.0,2.0,3.624792826446537,"1692619,","1.18,","-1.04,","-0.85,","-111.22,","-392.56,","267.07,","-22.21,","36.46,",-16.35,"1692629,","1.96,","-1.81,","-0.96,","-130.91,","-337.13,","184.39,","-22.51,","39.31,",-16.95,63749,1602597241.293832,1234,0.6085817493388138,1.5981526351699442,2.640876845958828,0.05042797087000661,1.3504392797638167,2.1778304543672293,0.6943197232057745,1.3025836028618851,2.932858347999108,63741,1602597241.293832,4321,0.970038115978241,1.4450819492340088,2.563588857650757,3.0416665077209473,4.227421283721924,5.504334926605225
,,155401.317303,4.101659536361694,44565,1602597241.307542,vicon,object name,0.6924325389476798,1.7932469483031812,1.0,2.3270623869766265,1.0,2.0,3.302354095991983,"1692639,","2.29,","-2.07,","-1.24,","-117.01,","-287.13,","67.50,","-24.31,","39.31,",-16.95,"1692649,","2.42,","-1.55,","-1.86,","-25.67,","-241.04,","-62.38,","-24.31,","43.21,",-15.60,63751,1602597241.313702,1234,0.7415726155331501,1.8200107741406057,2.7886754130098397,0.6637382343830571,1.7881006256920697,2.386043550904392,0.585615750602034,1.6578568352548997,2.834495340171435,63743,1602597241.313702,4321,0.5585469603538513,1.6807197332382202,2.3623359203338623,3.4738614559173584,4.866194725036621,5.126282691955566
,,155401.386252,4.1706085205078125,44572,1602597241.377557,vicon,object name,0.22275922032272588,1.2051716237787695,1.0,2.2648653484307486,1.0,2.0,3.7581851548725504,"1692707,","2.17,","-0.75,","-2.76,","91.10,","-175.85,","-173.23,","-24.16,","61.22,",-8.10,"1692718,","1.99,","-0.21,","-3.21,","171.46,","-54.70,","-221.89,","-23.11,","59.86,",-7.35,63757,1602597241.373733,1234,0.940260535661246,1.2130426440819768,2.2139368106683417,0.3636537654980587,1.5052467171476844,2.744443905989406,0.035501110442734074,1.29059920450598,2.8286643452950546,63749,1602597241.373733,4321,0.6043411493301392,1.899557113647461,2.565563440322876,3.6282637119293213,4.908005714416504,5.7396135330200195
,,155401.406733,4.191091299057007,44574,1602597241.397616,vicon,object name,0.2677981923399284,1.431643660057329,1.0,2.5858774132940865,1.0,2.0,3.9822978040340398,"1692728,","1.94,","0.03,","-3.20,","163.35,","69.70,","-228.29,","-25.51,","60.17,",-6.75,"1692738,","1.89,","-0.17,","-2.57,","88.60,","163.29,","-230.06,","-25.21,","57.01,",-7.65,63759,1602597241.393774,1234,0.8800932865342703,1.5819556744135772,2.782087286024068,0.9277154953216199,1.6985344019477138,2.837663074246628,0.14995060076745326,1.2357928079265632,2.4071459791503313,63751,1602597241.393774,4321,0.28557920455932617,1.2204208374023438,2.388026475906372,3.935831308364868,4.003673553466797,5.392818927764893
,,155401.427491,4.211849212646484,44576,1602597241.417592,vicon,object name,0.04315532814023526,1.3424292255214523,1.0,2.959211087338748,1.0,2.0,3.2218448943908435,"1692748,","1.71,","-0.19,","-1.94,","41.89,","215.67,","-256.16,","-24.46,","53.86,",-5.70,"1692759,","1.61,","-0.46,","-1.37,","25.49,","255.85,","-297.56,","-22.81,","50.26,",-8.55,63761,1602597241.41376,1234,0.847299656399574,1.83125378330424,2.7067917785017492,0.3825520127920814,1.990690733460233,2.0640095770195392,0.7251126231628461,1.572951608711163,2.406785896824076,63753,1602597241.41376,4321,0.1120864525437355,1.944111704826355,2.08414888381958,3.4877381324768066,4.904703617095947,5.320296764373779
,,155401.447969,4.232327222824097,44578,1602597241.43759,vicon,object name,0.7550415737255148,1.8676095909904098,1.0,2.712111412112759,1.0,2.0,3.7051465386938163,"1692769,","1.35,","-0.84,","-0.83,","14.09,","280.12,","-356.89,","-20.26,","39.16,",-6.00,"1692779,","0.74,","-0.91,","-0.67,","26.46,","280.49,","-430.73,","-16.20,","34.81,",-6.45,63764,1602597241.443774,1234,0.43712281511795936,1.649163587463065,2.196541015415364,0.5109144439091183,1.0251688420601262,2.6855829069215416,0.3085592570399017,1.5140205120113515,2.3162661538993126,63756,1602597241.443774,4321,0.7336281538009644,1.4431387186050415,2.834559917449951,3.0708892345428467,4.15667200088501,5.623679161071777
,,155401.468236,4.252593994140625,44580,1602597241.457571,vicon,object name,0.39721786908281476,1.5971477857750647,1.0,2.890395658658679,1.0,2.0,3.45195010644189,"1692789,","0.18,","-0.59,","-0.74,","25.61,","291.46,","-490.18,","-12.90,","30.31,",-7.65,"1692800,","-0.34,","-0.49,","-0.74,","-5.06,","334.57,","-502.56,","-8.70,","25.06,",-11.10,63766,1602597241.463753,1234,0.33442027932845797,1.1246495981713571,2.7042293393964716,0.771396944557399,1.0923212593795217,2.2901849554423714,0.7227389792755866,1.508609967475965,2.439634544725111,63758,1602597241.463753,4321,0.6770413517951965,1.032422423362732,2.33882999420166,3.4843430519104004,4.970778465270996,5.1197638511657715
,,155401.488754,4.273111343383789,44582,1602597241.477557,vicon,object name,0.35942549715933436,1.6006915316368233,1.0,2.4740826923837553,1.0,2.0,3.259743226044289,"1692810,","-0.96,","-0.24,","-0.70,","-21.95,","408.29,","-509.70,","-5.70,","23.56,",-13.95,"1692820,","-1.65,","0.05,","-0.87,","-10.79,","484.09,","-517.56,","-2.55,","17.10,",-18.00,63768,1602597241.483832,1234,0.43266900395839913,1.5165178468697256,2.5431822529635157,0.08546622322839481,1.6215526137303744,2.5461879707201773,0.9751113396913856,1.1696264243362124,2.37292912401795,63760,1602597241.483832,4321,0.14271652698516846,1.249031901359558,2.007305145263672,3.645596981048584,4.550631523132324,5.7223896980285645
,,155401.557382,4.341742277145386,44589,1602597241.547558,vicon,object name,0.8884125662512639,1.682424654628731,1.0,2.0789084150016883,1.0,2.0,3.140446501419016,"1692830,","-2.44,","0.26,","-0.76,","-11.52,","594.57,","-509.51,","-1.65,","17.70,",-20.86,"1692889,","-3.02,","0.37,","-0.63,","-22.13,","687.68,","-462.80,","-6.15,","20.56,",-19.50,63774,1602597241.543834,1234,0.0528185313613726,1.0308979295793521,2.392737432671792,0.3715813968467764,1.0116020271308503,2.975626609625777,0.048416357708307545,1.1840121944023707,2.77121760966166,63766,1602597241.543834,4321,0.5286071300506592,1.304932713508606,2.5676252841949463,3.784903049468994,4.719839096069336,5.959278583526611
,,155401.578144,4.3625006675720215,44591,1602597241.567595,vicon,object name,0.26171767127695444,1.1108564163351704,1.0,2.680981279750215,1.0,2.0,3.173053529829697,"1692899,","-2.71,","0.29,","0.12,","-75.37,","715.67,","-387.68,","-12.15,","25.36,",-19.20,"1692909,","-2.59,","0.50,","1.24,","-180.49,","495.18,","-340.67,","-14.85,","26.71,",-19.35,63777,1602597241.573785,1234,0.013792843408874988,1.899980197516597,2.9733168963528094,0.26602243061269826,1.8252132534222327,2.6675035195748786,0.32764819798440703,1.5985036990177477,2.643825457960474,63769,1602597241.573785,4321,0.07310911267995834,1.888805866241455,2.6087727546691895,3.7972252368927,4.710930347442627,5.031348705291748
,,155401.59869,4.383054971694946,44593,1602597241.587554,vicon,object name,0.5759213568894394,1.788744186056615,1.0,2.5198688774459113,1.0,2.0,3.9205687167668257,"1692920,","-2.81,","1.50,","2.14,","-270.30,","138.54,","-248.60,","-16.95,","31.51,",-20.41,"1692930,","-3.06,","3.04,","2.56,","-202.01,","-140.61,","-157.20,","-19.35,","35.11,",-22.51,63779,1602597241.593848,1234,0.6375253624259236,1.5879406971498384,2.2200125887378355,0.750435778440143,1.3108750503844075,2.7169665648105723,0.818994269625245,1.167999177990427,2.354702566650439,63771,1602597241.593848,4321,0.1322057545185089,1.5840896368026733,2.3557629585266113,3.94433856010437,4.269318103790283,5.164164066314697
,,155401.61918,4.403537034988403,44595,1602597241.607571,vicon,object name,0.6446433198560801,1.7052261428477282,1.0,2.030208183277484,1.0,2.0,3.807703804323952,"1692940,","-3.03,","4.08,","2.00,","12.93,","-223.35,","44.76,","-22.21,","39.01,",-21.46,"1692950,","-2.51,","3.03,","1.37,","27.01,","-188.48,","211.40,","-23.26,","43.21,",-21.76,63781,1602597241.61373,1234,0.7852065366505049,1.3517301566921305,2.371949459278621,0.3846681069928827,1.2598600919167482,2.787701166544954,0.805892168993026,1.67265087622104,2.557408983963616,63773,1602597241.61373,4321,0.16777782142162323,1.3482671976089478,2.2212486267089844,3.454765796661377,4.839482307434082,5.773677349090576
,,155401.639645,4.4240031242370605,44597,1602597241.62755,vicon,object name,0.14752388317295528,1.8728869501221128,1.0,2.958598121370212,1.0,2.0,3.7213915623239218,"1692961,","-1.91,","1.25,","1.29,","0.43,","-173.48,","340.06,","-23.56,","47.11,",-21.46,"1692971,","-1.57,","0.79,","0.79,","4.02,","-170.24,","414.27,","-24.46,","51.76,",-21.31,63783,1602597241.633732,1234,0.9539133354124834,1.5489033254414277,2.799672948569847,0.7331180721004202,1.3037576258025942,2.7979277066172608,0.8599575292091033,1.2859166706718264,2.425956125819275,63775,1602597241.633732,4321,0.9854337573051453,1.1082335710525513,2.746507167816162,3.0334439277648926,4.033222198486328,5.244050979614258
,,155401.6605,4.444857358932495,44600,1602597241.657606,vicon,object name,0.4442972331027062,1.9011060449987165,1.0,2.333850383105281,1.0,2.0,3.437730298754267,"1692981,","-1.36,","0.67,","0.87,","-49.33,","-146.59,","509.51,","-24.76,","55.66,",-19.95,"1692991,","-1.25,","0.76,","0.88,","-155.06,","-214.02,","656.22,","-25.21,","57.46,",-19.20,63785,1602597241.653757,1234,0.013058691827218416,1.6221968811114995,2.580202101671194,0.25934597182449126,1.9085638224857835,2.228722732661259,0.779470948855779,1.505467069917286,2.250648384215922,63777,1602597241.653757,4321,0.19377493858337402,1.324123740196228,2.858513593673706,3.782940626144409,4.400535583496094,5.134262561798096
,,155401.681181,4.46553897857666,44602,1602597241.677575,vicon,object name,0.10951334467798657,1.8962198394106353,1.0,2.0515318959743385,1.0,2.0,3.8979934377893155,"1693002,","-0.92,","0.80,","1.10,","-245.24,","-303.48,","783.23,","-25.36,","60.47,",-20.71,"1693012,","-0.50,","0.79,","1.33,","-216.59,","-382.50,","810.61,","-24.31,","61.07,",-19.35,63787,1602597241.673779,1234,0.9656425008892088,1.27775706713325,2.7593776373768844,0.08742569602783357,1.5607465671854541,2.435084257477291,0.38987146084813096,1.0054188826212664,2.144834189780241,63779,1602597241.673779,4321,0.23920688033103943,1.9503583908081055,2.371945858001709,3.031477451324463,4.687826156616211,5.108990669250488
,,155401.745833,4.5301902294158936,44608,1602597241.737564,vicon,object name,0.26972187551703297,1.3937088319852333,1.0,2.285450379424182,1.0,2.0,3.5005161260154933,"1693067,","-0.80,","0.30,","0.70,","-84.21,","-501.40,","784.21,","-23.41,","48.91,",-18.60,"1693077,","-0.99,","-0.98,","-0.72,","2.87,","-663.96,","785.61,","-21.76,","43.21,",-18.00,63793,1602597241.733766,1234,0.6667002400965901,1.787953554589011,2.7246088064033174,0.29568881850972806,1.6892324321343049,2.1537021293757546,0.7781143721758024,1.9072338201893646,2.955001864866452,63785,1602597241.733766,4321,0.24062955379486084,1.4210947751998901,2.231220006942749,3.4359591007232666,4.20357084274292,5.814187049865723
,,155401.7665,4.550857782363892,44610,1602597241.757638,vicon,object name,0.2117480300658906,1.404226542431831,1.0,2.3562904086860033,1.0,2.0,3.6317077669635105,"1693087,","0.66,","-3.84,","-1.80,","79.15,","-706.95,","749.21,","-18.60,","35.86,",-18.75,"1693098,","3.11,","-7.08,","-3.63,","106.34,","-611.83,","571.59,","-16.20,","31.21,",-19.05,63795,1602597241.753753,1234,0.012131126624211341,1.2181102624573574,2.455106401843981,0.23499833089699573,1.4723052689185225,2.119047527460203,0.266063383705579,1.9828232065379614,2.2462613995582243,63787,1602597241.753753,4321,0.06894463300704956,1.2407934665679932,2.881542444229126,3.1293210983276367,4.223747253417969,5.866499423980713
,,155401.787091,4.5714499950408936,44612,1602597241.777559,vicon,object name,0.23179932966969297,1.1612536641346614,1.0,2.5225864495946553,1.0,2.0,3.6314263267975013,"1693108,","4.34,","-6.72,","-4.24,","-2.56,","-258.84,","298.96,","-11.85,","26.86,",-20.86,"1693118,","4.77,","-3.04,","-2.23,","11.83,","37.38,","-70.37,","-6.00,","22.81,",-23.86,63797,1602597241.773844,1234,0.9709824812992577,1.4357485649398603,2.6067330929183297,0.5899848677278923,1.3994628291994262,2.680037688479791,0.00790787380778657,1.33588244064916,2.1434873656779154,63789,1602597241.773844,4321,0.5272197127342224,1.80862557888031,2.9485530853271484,3.9632163047790527,4.445741176605225,5.918105125427246
