name,date,time,time_since_start,vicon_sequence,vicon_time_stamp,vicon_frame_id,vicon_child_frame_id,vicon_translation_x,vicon_translation_y,vicon_translation_z,vicon_rotation_x,vicon_rotation_y,vicon_rotation_z,vicon_rotation_w,int_imu_time_stamp,int_imu_acc_x,int_imu_acc_y,int_imu_acc_z,int_imu_gyro_x,int_imu_gyro_y,int_imu_gyro_z,int_imu_mag_x,int_imu_mag_y,int_imu_mag_z,ext_imu_time_stamp,ext_imu_acc_x,ext_imu_acc_y,ext_imu_acc_z,ext_imu_gyro_x,ext_imu_gyro_y,ext_imu_gyro_z,ext_imu_mag_x,ext_imu_mag_y,ext_imu_mag_z,dji_imu_sequence,dji_imu_time_stamp,dji_imu_frame_id,dji_imu_orientation_x,dji_imu_orientation_y,dji_imu_orientation_z,dji_imu_ang_vel_x,dji_imu_ang_vel_y,dji_imu_ang_vel_z,dji_imu_lin_acc_x,dji_imu_lin_acc_y,dji_imu_lin_acc_z,rc_sequence,rc_time_stamp,rc_frame_id,rc_roll,rc_pitch,rc_yaw,rc_throttle,rc_mode,rc_landing_gear
/home/wc18ny/Desktop/VibrationTest/data.csv,20201016,133748.912723,2.3126602172851562e-05,0.0,0.0,0.0,0.0,0.0,0.0,0.0,0.0,0.0,0.0,0.0,14885.0,-0.0,0.0,-1.01,-1.4,-1.65,-0.12,-10.95,47.11,-54.31,14894.0,-0.01,0.01,-1.0,-1.46,-1.71,-0.3,-11.85,46.21,-54.46,1538,1602848268.905599,1234,0.48425271342553355,-9.77666877154434,2.0255961750895777,0.3847789094860605,1.998175196223237,2.276995769940917,0.43193727739724874,1.254759261755685,2.7434711410077846,1537,1602848268.905599,4321,0.9388746619224548,1.5664492845535278,2.373696804046631,3.923619508743286,4.509446620941162,5.407883167266846
,,133748.915033,0.0023314952850341797,0.0,0.0,0.0,0.0,0.0,0.0,0.0,0.0,0.0,0.0,0.0,14904.0,-0.01,0.0,-1.01,-1.52,-1.71,0.0,-10.8,47.86,-56.11,14913.0,-0.0,-0.0,-1.02,-1.4,-1.65,-0.24,-11.85,47.26,-54.76,1538,1602848268.905599,1234,0.48425271342553355,-9.77666877154434,2.0255961750895777,0.3847789094860605,1.998175196223237,2.276995769940917,0.43193727739724874,1.254759261755685,2.7434711410077846,1537,1602848268.905599,4321,0.9388746619224548,1.5664492845535278,2.373696804046631,3.923619508743286,4.509446620941162,5.407883167266846
,,133748.93532,0.022619962692260742,0.0,0.0,0.0,0.0,0.0,0.0,0.0,0.0,0.0,0.0,0.0,14922.0,-0.01,0.01,-1.01,-1.34,-1.77,-0.18,-12.75,47.11,-54.91,14932.0,-0.0,0.0,-1.02,-1.4,-1.65,-0.18,-11.1,48.61,-54.16,1540,1602848268.925544,1234,0.6272327302453862,-9.410102390443972,2.2373278119292554,0.14100966390710834,1.16135426547753,2.2923853735904607,0.8673108660980338,1.4255997728636416,2.997853875086287,1539,1602848268.925544,4321,0.6286277770996094,1.9800797700881958,2.288259267807007,3.2210257053375244,4.768172264099121,5.060965538024902
,,133748.958343,0.0456540584564209,0.0,0.0,0.0,0.0,0.0,0.0,0.0,0.0,0.0,0.0,0.0,14941.0,-0.01,0.01,-1.02,-1.46,-1.59,-0.18,-10.95,47.41,-54.91,14951.0,-0.01,0.0,-1.01,-1.34,-1.65,-0.24,-12.0,46.36,-54.91,1542,1602848268.945515,1234,0.33006744446680325,-9.74773436333151,2.410713941316821,0.519583626635454,1.8773590736996213,2.0180865263925245,0.07778962112063348,1.346679421497638,2.460633121804903,1541,1602848268.945515,4321,0.5846410393714905,1.7175114154815674,2.8869354724884033,3.680190086364746,4.047360420227051,5.125879287719727
,,133748.974738,0.062032461166381836,0.0,0.0,0.0,0.0,0.0,0.0,0.0,0.0,0.0,0.0,0.0,14960.0,0.0,0.01,-1.0,-1.4,-1.71,-0.24,-11.25,47.41,-53.86,14970.0,-0.0,0.02,-1.0,-1.34,-1.77,-0.3,-10.8,46.51,-56.11,1544,1602848268.965559,1234,0.28872648376634213,-9.63788432456608,2.429231084575227,0.6359346732027943,1.7926600754442514,2.772952943573987,0.5602051839889528,1.2735984706179324,2.5690197033744346,1543,1602848268.965559,4321,0.7229518890380859,1.3270263671875,2.0397751331329346,3.4210660457611084,4.996980667114258,5.32440710067749
,,133748.996972,0.08426809310913086,0.0,0.0,0.0,0.0,0.0,0.0,0.0,0.0,0.0,0.0,0.0,14979.0,-0.0,0.01,-1.0,-1.34,-1.77,-0.18,-12.0,47.71,-54.31,14989.0,-0.0,0.0,-1.01,-1.4,-1.77,-0.12,-12.0,47.71,-54.31,1546,1602848268.985522,1234,0.5233919564295099,-9.76136158329564,2.549960667717402,0.6796661692586831,1.9256850787245905,2.175617686129226,0.7451507076558402,1.6429482131727242,2.2434975597739943,1545,1602848268.985522,4321,0.4962466061115265,1.041022539138794,2.0294382572174072,3.1997129917144775,4.603201866149902,5.747043609619141
,,133749.019697,0.1070246696472168,0.0,0.0,0.0,0.0,0.0,0.0,0.0,0.0,0.0,0.0,0.0,15048.0,-0.0,0.01,-1.01,-1.4,-1.71,-0.24,-9.9,46.66,-54.31,15058.0,-0.01,0.01,-1.01,-1.46,-1.77,-0.12,-10.8,47.56,-54.16,1548,1602848269.5588,1234,0.18108650801500126,-9.306401419566924,2.428680867555147,0.0665108215349991,1.0341623981716008,2.329399049342875,0.7403760476267954,1.969127013752181,2.526422158397611,1547,1602848269.5588,4321,0.626168429851532,1.1762645244598389,2.857548475265503,3.1707065105438232,4.29710578918457,5.757316589355469
,,133749.035908,0.1232144832611084,0.0,0.0,0.0,0.0,0.0,0.0,0.0,0.0,0.0,0.0,0.0,15068.0,-0.01,-0.0,-1.0,-1.34,-1.71,-0.24,-11.1,47.86,-55.06,15078.0,0.0,0.0,-1.01,-1.52,-1.71,-0.24,-11.7,46.36,-54.31,1550,1602848269.2714,1234,0.456626040793755,-9.350938918133496,2.712776656670945,0.5242451119924977,1.3773315345574249,2.8818584602633095,0.36660443891568484,1.1489654192876704,2.7078778927042,1549,1602848269.2714,4321,0.4949321448802948,1.7890586853027344,2.421492576599121,3.0607542991638184,4.045578956604004,5.007988452911377
,,133749.055449,0.14275288581848145,0.0,0.0,0.0,0.0,0.0,0.0,0.0,0.0,0.0,0.0,0.0,15088.0,0.0,0.01,-1.02,-1.4,-1.71,-0.24,-10.8,48.31,-55.06,15098.0,-0.0,0.01,-1.01,-1.34,-1.71,-0.12,-10.2,47.11,-55.96,1552,1602848269.45573,1234,0.4885571681327503,-9.044590131446755,2.169297419221324,0.8051874478459007,1.0923279411532207,2.8225264202492135,0.17304258873867695,1.9776941115508073,2.1417334314506014,1551,1602848269.45573,4321,0.3590334951877594,1.6946450471878052,2.357177495956421,3.7540600299835205,4.0674872398376465,5.7803754806518555
,,133749.074904,0.16219830513000488,0.0,0.0,0.0,0.0,0.0,0.0,0.0,0.0,0.0,0.0,0.0,15108.0,-0.01,0.01,-1.0,-1.34,-1.71,-0.24,-11.25,48.16,-55.96,15118.0,-0.01,-0.0,-1.01,-1.59,-1.71,-0.12,-12.15,46.51,-54.46,1554,1602848269.65532,1234,0.7047309005093056,-9.383115043289985,2.8452375726485197,0.030575510001511708,1.4239796084652379,2.324325576135215,0.4528856119434307,1.3538522935028328,2.315031199763999,1553,1602848269.65532,4321,0.9898643493652344,1.7370147705078125,2.0959115028381348,3.645981550216675,4.502940654754639,5.573452472686768
,,133749.094641,0.18193626403808594,0.0,0.0,0.0,0.0,0.0,0.0,0.0,0.0,0.0,0.0,0.0,15128.0,-0.01,0.0,-1.0,-1.4,-1.71,-0.18,-10.35,46.81,-55.81,15138.0,-0.0,0.01,-1.01,-1.34,-1.65,-0.3,-10.95,46.36,-54.91,1556,1602848269.85531,1234,0.5717890651142179,-9.151083917133652,2.704566235172274,0.12113039978133977,1.473478878061368,2.1750472991654877,0.1629840353264752,1.3069902220605312,2.821384599026226,1555,1602848269.85531,4321,0.39782601594924927,1.145772933959961,2.5475547313690186,3.7551631927490234,4.887528419494629,5.751809120178223
,,133749.114907,0.20220184326171875,0.0,0.0,0.0,0.0,0.0,0.0,0.0,0.0,0.0,0.0,0.0,15148.0,-0.0,0.01,-0.99,-1.4,-1.71,-0.18,-11.7,47.71,-54.61,15158.0,-0.0,0.0,-1.01,-1.52,-1.71,-0.18,-11.7,47.71,-54.91,1558,1602848269.10574,1234,0.19116816511013945,-9.004486819327411,2.8134337159426064,0.8512675811554639,1.6053685294783757,2.905720598055785,0.9942204173011199,1.7946068677224807,2.746665899584971,1557,1602848269.10574,4321,0.620742917060852,1.709943413734436,2.7344372272491455,3.215989112854004,4.658101558685303,5.311277389526367
,,133749.135001,0.22229862213134766,0.0,0.0,0.0,0.0,0.0,0.0,0.0,0.0,0.0,0.0,0.0,15168.0,0.0,0.01,-1.0,-1.52,-1.71,-0.18,-12.45,48.31,-55.81,15177.0,-0.0,0.01,-1.01,-1.4,-1.65,-0.18,-11.7,47.11,-54.31,1560,1602848269.12548,1234,0.9709640030545191,-9.287709955701587,2.278576729309828,0.6444284172067624,1.7917555101340747,2.7411295001713736,0.5727581429343581,1.8985462026811526,2.5538029437954135,1559,1602848269.12548,4321,0.32375821471214294,1.7699103355407715,2.8654160499572754,3.9424610137939453,4.742169380187988,5.399523735046387
,,133749.155174,0.24247217178344727,0.0,0.0,0.0,0.0,0.0,0.0,0.0,0.0,0.0,0.0,0.0,15241.0,-0.0,0.01,-1.01,-1.52,-1.65,-0.18,-9.3,47.86,-53.41,15251.0,-0.01,0.0,-1.01,-1.46,-1.65,0.0,-11.85,46.81,-55.81,1562,1602848269.145524,1234,0.3803535457454792,-9.69348148664202,2.1448286867794684,0.36768377062352986,1.343618065684042,2.1800825385950073,0.6933875483689521,1.1076558085044739,2.545539306801902,1561,1602848269.145524,4321,0.08828800171613693,1.1223753690719604,2.676072359085083,3.319143295288086,4.420932292938232,5.205182075500488
,,133749.178346,0.2656726837158203,0.0,0.0,0.0,0.0,0.0,0.0,0.0,0.0,0.0,0.0,0.0,15261.0,-0.01,0.01,-1.0,-1.34,-1.65,-0.18,-10.8,46.81,-55.81,15270.0,-0.0,0.01,-0.99,-1.34,-1.77,-0.18,-10.65,47.71,-54.61,1564,1602848269.165644,1234,0.6421641888371123,-9.710280046505886,2.6123080829509044,0.5892150314014362,1.7966063064455202,2.8624898833565315,0.08454774317903657,1.1079368505393445,2.0177968205234897,1563,1602848269.165644,4321,0.2983369529247284,1.0649290084838867,2.640493392944336,3.4830563068389893,4.83833122253418,5.811018943786621
,,133749.197605,0.28491997718811035,0.0,0.0,0.0,0.0,0.0,0.0,0.0,0.0,0.0,0.0,0.0,15280.0,0.0,-0.0,-1.0,-1.4,-1.65,-0.37,-10.05,46.51,-55.81,15290.0,-0.01,0.0,-1.01,-1.4,-1.77,-0.37,-11.4,47.26,-54.46,1565,1602848269.175658,1234,0.737846728146623,-9.89097277120097,2.126731446048231,0.6770945452486246,1.6373866404312085,2.456097195748039,0.8682687183936552,1.5146671638086788,2.3290540046488157,1565,1602848269.187336,4321,0.21798619627952576,1.3579037189483643,2.790256977081299,3.119948387145996,4.13640832901001,5.066527843475342
,,133749.2162,0.3035085201263428,0.0,0.0,0.0,0.0,0.0,0.0,0.0,0.0,0.0,0.0,0.0,15300.0,-0.0,0.0,-1.01,-1.4,-1.71,-0.12,-11.25,47.11,-54.91,15310.0,-0.0,0.01,-1.02,-1.4,-1.65,-0.12,-10.8,48.31,-55.51,1568,1602848269.205534,1234,0.46638066140231094,-9.506245880863183,2.114031209951258,0.44326499709927736,1.7324193941848627,2.2558682235257805,0.45767205039277814,1.605541917992039,2.7994821476677885,1567,1602848269.205534,4321,0.3845647871494293,1.1506787538528442,2.9842965602874756,3.674781084060669,4.8538641929626465,5.756802082061768
,,133749.237265,0.3245995044708252,0.0,0.0,0.0,0.0,0.0,0.0,0.0,0.0,0.0,0.0,0.0,15320.0,-0.01,0.02,-1.01,-1.46,-1.71,-0.3,-10.95,47.41,-55.36,15330.0,0.0,0.0,-1.02,-1.4,-1.65,-0.18,-11.4,46.81,-54.76,1570,1602848269.225589,1234,0.8463862602599329,-9.78105853057266,2.1947739281040155,0.17717831563059017,1.6434706147516676,2.4341061030887694,0.24868427336668886,1.7513308752443288,2.348944327922712,1569,1602848269.225589,4321,0.6841822266578674,1.994819164276123,2.6759886741638184,3.983515501022339,4.860471725463867,5.179301738739014
,,133749.255599,0.34290242195129395,0.0,0.0,0.0,0.0,0.0,0.0,0.0,0.0,0.0,0.0,0.0,15340.0,-0.0,0.01,-1.0,-1.46,-1.65,-0.12,-11.1,47.56,-55.06,15350.0,-0.0,-0.0,-1.01,-1.52,-1.83,-0.24,-11.4,46.21,-54.76,1572,1602848269.245539,1234,0.5504678053722323,-9.248896662583364,2.4955640387377964,0.9803098274363684,1.177888397675669,2.0082316629761383,0.7966736835976154,1.8165982838618335,2.5130286976534797,1571,1602848269.245539,4321,0.16058319807052612,1.4059011936187744,2.1722779273986816,3.3969383239746094,4.898351192474365,5.477215766906738
,,133749.275357,0.3626558780670166,0.0,0.0,0.0,0.0,0.0,0.0,0.0,0.0,0.0,0.0,0.0,15360.0,-0.0,0.01,-1.01,-1.34,-1.71,-0.3,-11.4,48.31,-55.06,15370.0,-0.01,0.01,-1.01,-1.46,-1.71,-0.18,-12.0,46.66,-54.61,1574,1602848269.265532,1234,0.10235012744349081,-9.705506542734533,2.605678756657545,0.030792693760885892,1.0889119813668064,2.542221907443907,0.1050268041502973,1.8094995538676324,2.9948599141244445,1573,1602848269.265532,4321,0.2563721537590027,1.3932017087936401,2.5330653190612793,3.1545441150665283,4.538378715515137,5.325265407562256
,,133749.298505,0.3858318328857422,0.0,0.0,0.0,0.0,0.0,0.0,0.0,0.0,0.0,0.0,0.0,15433.0,-0.0,0.01,-1.0,-1.46,-1.65,-0.12,-10.35,46.51,-54.46,15443.0,-0.01,0.02,-1.02,-1.4,-1.77,0.0,-11.25,46.36,-54.31,1576,1602848269.285572,1234,0.4676828938280433,-9.235970548103353,2.7013032874760556,0.7215273180570899,1.2987732990945762,2.880202983985085,0.7420052874004243,1.3829248290295526,2.9924932192623483,1575,1602848269.285572,4321,0.6282366514205933,1.7823745012283325,2.5346872806549072,3.8436670303344727,4.714297294616699,5.438833236694336
,,133749.315577,0.4028804302215576,0.0,0.0,0.0,0.0,0.0,0.0,0.0,0.0,0.0,0.0,0.0,15453.0,-0.01,0.01,-1.0,-1.46,-1.65,-0.12,-11.1,48.31,-54.16,15463.0,-0.0,0.01,-1.01,-1.52,-1.65,-0.3,-11.4,48.31,-53.71,1578,1602848269.305581,1234,0.6155190617587314,-9.422314595314884,2.997178323410894,0.030319139523499405,1.2967545054707013,2.7153244558991876,0.8534305790154714,1.888095082466371,2.548656546610882,1577,1602848269.305581,4321,0.9914504885673523,1.6322542428970337,2.280334711074829,3.258530378341675,4.204606533050537,5.539327621459961
,,133749.335192,0.42249107360839844,0.0,0.0,0.0,0.0,0.0,0.0,0.0,0.0,0.0,0.0,0.0,15473.0,-0.0,0.01,-1.01,-1.4,-1.71,-0.18,-12.0,47.11,-54.91,15482.0,0.0,0.01,-1.0,-1.46,-1.71,-0.24,-11.7,46.06,-55.36,1580,1602848269.325689,1234,0.19661083983987182,-9.333131699169464,2.3315672994281313,0.38089121277733773,1.1279365370591155,2.2517893966501266,0.2171144335893812,1.4680915193266248,2.8150411205901893,1579,1602848269.325689,4321,0.9960439801216125,1.5461153984069824,2.8625340461730957,3.8500893115997314,4.240029335021973,5.0927300453186035
,,133749.355212,0.44250941276550293,0.0,0.0,0.0,0.0,0.0,0.0,0.0,0.0,0.0,0.0,0.0,15492.0,-0.0,0.01,-1.02,-1.4,-1.71,-0.37,-10.95,46.36,-55.36,15502.0,0.0,0.01,-1.01,-1.46,-1.65,-0.18,-10.95,47.41,-55.66,1582,1602848269.345524,1234,0.9803759567877885,-9.441865719131611,2.8828770666365107,0.40542977478736086,1.3359980256039865,2.412109940709937,0.5704076996973374,1.4559218457004586,2.422466100209273,1581,1602848269.345524,4321,0.8200763463973999,1.2543524503707886,2.582174062728882,3.7029566764831543,4.196587562561035,5.325207233428955
,,133749.376154,0.46346449851989746,0.0,0.0,0.0,0.0,0.0,0.0,0.0,0.0,0.0,0.0,0.0,15512.0,-0.0,0.01,-1.01,-1.34,-1.65,-0.18,-10.8,47.26,-55.51,15522.0,-0.0,0.01,-1.01,-1.34,-1.65,-0.24,-11.7,47.11,-55.36,1584,1602848269.365518,1234,0.2756187103589798,-9.205822856800546,2.3851480427379617,0.6231863129274258,1.0513307371754133,2.5032568512134006,0.9740407025529626,1.9725624102137456,2.7916409594098837,1583,1602848269.365518,4321,0.1948021650314331,1.2226048707962036,2.300077438354492,3.2914888858795166,4.745847702026367,5.270790100097656
,,133749.399192,0.48651909828186035,0.0,0.0,0.0,0.0,0.0,0.0,0.0,0.0,0.0,0.0,0.0,15532.0,0.0,0.01,-0.99,-1.46,-1.71,-0.3,-10.65,48.16,-54.91,15542.0,0.0,0.01,-1.01,-1.4,-1.65,-0.24,-10.65,46.06,-54.31,1586,1602848269.385637,1234,0.6502331855329793,-9.392377974919176,2.0312217727801833,0.6946030522425614,1.117491999518177,2.115896567383866,0.015340450428949826,1.060455223999311,2.9788875328389577,1585,1602848269.385637,4321,0.02180781401693821,1.0569530725479126,2.18078875541687,3.3138785362243652,4.419694900512695,5.309288024902344
,,133749.415516,0.5028200149536133,0.0,0.0,0.0,0.0,0.0,0.0,0.0,0.0,0.0,0.0,0.0,15552.0,-0.0,0.0,-1.0,-1.34,-1.71,-0.12,-12.3,47.41,-55.36,15562.0,-0.01,0.01,-1.01,-1.52,-1.59,-0.12,-12.0,48.46,-54.61,1588,1602848269.405559,1234,0.21229971102491163,-9.004180524688236,2.733280320310869,0.3593044477504235,1.6716442672741276,2.8228717550696185,0.4900573031180474,1.0142851560215458,2.5758342414657336,1587,1602848269.405559,4321,0.637017548084259,1.4238414764404297,2.4257874488830566,3.893968343734741,4.334897518157959,5.8559675216674805
,,133749.435634,0.5229377746582031,0.0,0.0,0.0,0.0,0.0,0.0,0.0,0.0,0.0,0.0,0.0,15626.0,-0.0,0.05,-12.09,-270.85,1052.01,-348.72,-11.1,47.56,-54.76,15700.0,-0.01,0.01,-1.01,-1.28,-1.77,-0.24,-11.1,46.51,-55.06,1590,1602848269.425556,1234,0.34036301117875023,-9.412206208273053,2.577352238129965,0.7508090954082495,1.6923129810828927,2.1111872569156223,0.0055230946034654504,1.1330256373394971,2.1457178944697963,1589,1602848269.425556,4321,0.6937639117240906,1.577684760093689,2.85332989692688,3.713305950164795,4.382511138916016,5.5840163230896
,,133749.455618,0.5429196357727051,0.0,0.0,0.0,0.0,0.0,0.0,0.0,0.0,0.0,0.0,0.0,15710.0,-0.0,0.0,-1.01,-1.4,-1.77,-0.18,-10.95,47.11,-55.36,15720.0,-0.0,0.0,-1.01,-1.46,-1.65,0.0,-9.9,47.11,-55.66,1592,1602848269.445535,1234,0.7633464262222728,-9.021797524592028,2.8401043742600116,0.7747879996612232,1.124620649176622,2.3672723270963654,0.20836426391041873,1.1365119415716578,2.23647672167776,1591,1602848269.445535,4321,0.3657442033290863,1.3650261163711548,2.5309154987335205,3.092219829559326,4.059858798980713,5.000290393829346
,,133749.475534,0.5628368854522705,0.0,0.0,0.0,0.0,0.0,0.0,0.0,0.0,0.0,0.0,0.0,15729.0,0.0,0.02,-1.0,-1.4,-1.65,-0.24,-12.45,47.56,-56.11,15740.0,-0.0,0.02,-1.01,-1.28,-1.71,-0.24,-11.4,46.51,-54.76,1594,1602848269.465535,1234,0.5992858414010451,-9.232523965980835,2.759601360109899,0.23865205209062323,1.7400539581219832,2.1794919155443733,0.6412469530945925,1.8747254776202515,2.67975848104457,1593,1602848269.465535,4321,0.6971755027770996,1.4564300775527954,2.554516315460205,3.1595206260681152,4.32404899597168,5.870283603668213
,,133749.495644,0.5829465389251709,0.0,0.0,0.0,0.0,0.0,0.0,0.0,0.0,0.0,0.0,0.0,15749.0,0.0,0.01,-1.01,-1.34,-1.71,-0.18,-12.0,47.41,-54.91,15760.0,0.0,0.0,-1.01,-1.46,-1.65,-0.24,-11.4,47.86,-54.16,1596,1602848269.485547,1234,0.7989802772217808,-9.813382292813396,2.9632802590939713,0.5511029868420304,1.7372724765688847,2.5739549931774337,0.8387392210415983,1.9382397710811163,2.2238736547810216,1595,1602848269.485547,4321,0.043191757053136826,1.6479355096817017,2.5493571758270264,3.745866060256958,4.248692035675049,5.3721723556518555
,,133749.515617,0.602921724319458,0.0,0.0,0.0,0.0,0.0,0.0,0.0,0.0,0.0,0.0,0.0,15769.0,-0.01,0.0,-1.01,-1.4,-1.65,-0.24,-10.65,48.76,-55.66,15780.0,-0.0,-0.0,-1.02,-1.4,-1.65,-0.12,-12.9,47.56,-54.46,1598,1602848269.50569,1234,0.20378954766391122,-9.347549986025113,2.6303782993392657,0.679851045275603,1.9418814432901597,2.5744273453868494,0.3508649457251022,1.243966644690149,2.8255932100108097,1597,1602848269.50569,4321,0.00586005998775363,1.478712797164917,2.5332469940185547,3.426236867904663,4.828900337219238,5.324508190155029
,,133749.536183,0.6234879493713379,0.0,0.0,0.0,0.0,0.0,0.0,0.0,0.0,0.0,0.0,0.0,20359.0,-0.0,0.01,-1.01,-1.34,-1.65,-0.24,-11.4,48.31,-56.11,20368.0,0.0,0.01,-1.01,-1.4,-1.65,-0.12,-11.25,47.71,-54.61,1600,1602848269.52553,1234,0.6941732002407737,-9.147863142930351,2.243313882236833,0.857063524030384,1.9825209802189878,2.796734260944927,0.492411955028619,1.3562759970866072,2.965813000833389,1599,1602848269.52553,4321,0.21602500975131989,1.408887267112732,2.102534055709839,3.7344231605529785,4.497397422790527,5.431478500366211
,,133749.55605,0.6433537006378174,0.0,0.0,0.0,0.0,0.0,0.0,0.0,0.0,0.0,0.0,0.0,20377.0,0.0,0.02,-1.02,-1.4,-1.77,-0.12,-10.35,47.56,-54.76,20387.0,-0.01,0.02,-1.02,-1.28,-1.59,-0.24,-10.65,46.36,-54.91,1602,1602848269.545549,1234,0.5609788884966402,-9.538969629397089,2.1746545108018647,0.2434185635862014,1.0167464030855538,2.17393942743335,0.7849979389647512,1.9344954172364397,2.5468552785011833,1601,1602848269.545549,4321,0.33216020464897156,1.739641785621643,2.041508913040161,3.391202926635742,4.1108222007751465,5.389199733734131
,,133749.576192,0.6634957790374756,0.0,0.0,0.0,0.0,0.0,0.0,0.0,0.0,0.0,0.0,0.0,20396.0,-0.0,0.01,-1.01,-1.4,-1.77,-0.3,-10.8,47.56,-54.76,20406.0,-0.01,0.01,-1.01,-1.46,-1.71,-0.3,-10.8,47.56,-54.76,1604,1602848269.565551,1234,0.31788919621094325,-9.781534142692385,2.417876260838776,0.4522132118709544,1.4699187535344949,2.3362812952775935,0.9191210629857515,1.5248849680820498,2.9679978926730044,1603,1602848269.565551,4321,0.31847843527793884,1.7418729066848755,2.0714974403381348,3.9820218086242676,4.295924663543701,5.9186859130859375
,,133749.596178,0.683488130569458,0.0,0.0,0.0,0.0,0.0,0.0,0.0,0.0,0.0,0.0,0.0,20415.0,-0.0,0.01,-1.01,-1.4,-1.65,-0.18,-10.8,47.86,-54.46,20425.0,0.0,0.0,-1.02,-1.34,-1.65,-0.3,-10.95,46.36,-54.61,1606,1602848269.585546,1234,0.4160740536328168,-9.331428518279386,2.7659496047921266,0.4500005266579582,1.7767058058317784,2.278138521823603,0.8439697269237174,1.076046609462789,2.2436810353853915,1605,1602848269.585546,4321,0.6027064323425293,1.5164225101470947,2.184234619140625,3.708160400390625,4.191812515258789,5.680285930633545
,,133749.615959,0.703275203704834,0.0,0.0,0.0,0.0,0.0,0.0,0.0,0.0,0.0,0.0,0.0,20434.0,-0.01,0.01,-1.01,-1.4,-1.59,-0.18,-11.85,47.56,-55.06,20444.0,-0.01,-0.0,-1.02,-1.34,-1.65,-0.18,-11.25,48.16,-53.56,1608,1602848269.605544,1234,0.5302610835739457,-9.114984289180528,2.4406606569899667,0.24843579839740781,1.5868813614938113,2.347463880224417,0.6792112627207286,1.6921654297923077,2.118915726770679,1607,1602848269.605544,4321,0.14611558616161346,1.507088541984558,2.1632180213928223,3.128859758377075,4.878365993499756,5.314122676849365
,,133749.683286,0.7705903053283691,0.0,0.0,0.0,0.0,0.0,0.0,0.0,0.0,0.0,0.0,0.0,20509.0,-0.01,0.01,-1.01,-1.4,-1.77,-0.18,-10.8,46.51,-54.76,20519.0,-0.01,0.0,-1.01,-1.34,-1.65,-0.24,-10.05,48.31,-54.16,1615,1602848269.675725,1234,0.7207519403696455,-9.797953417851094,2.6553524660759993,0.9752557476405739,1.9798294687877358,2.666053918791046,0.27615252410645064,1.2237190467371595,2.395294075340337,1614,1602848269.675725,4321,0.22716495394706726,1.3196429014205933,2.8157002925872803,3.9586613178253174,4.464301586151123,5.058381080627441
,,133749.703491,0.7908041477203369,0.0,0.0,0.0,0.0,0.0,0.0,0.0,0.0,0.0,0.0,0.0,20529.0,0.0,0.01,-1.01,-1.46,-1.71,-0.3,-10.95,46.36,-54.61,20539.0,-0.0,0.0,-1.02,-1.34,-1.65,-0.18,-10.8,48.31,-54.46,1617,1602848269.695571,1234,0.5122190989188912,-9.037213143287007,2.454811393149969,0.32795377081691335,1.4802559459185778,2.944004944505663,0.9071671565647468,1.8577318768618052,2.73388159160013,1616,1602848269.695571,4321,0.1655140519142151,1.4324512481689453,2.008140802383423,3.4440248012542725,4.093602180480957,5.518157482147217
,,133749.723147,0.8104498386383057,0.0,0.0,0.0,0.0,0.0,0.0,0.0,0.0,0.0,0.0,0.0,20549.0,-0.01,0.02,-1.0,-1.4,-1.65,-0.24,-10.95,48.16,-56.71,20559.0,-0.01,0.01,-1.0,-1.46,-1.77,0.0,-11.25,47.71,-54.31,1619,1602848269.715584,1234,0.7608905322126636,-9.531011842590631,2.6512091340938784,0.5720251980555391,1.1110473083762762,2.7346579545685876,0.8525401283795735,1.8673436214914065,2.094573310634508,1618,1602848269.715584,4321,0.7998849153518677,1.1884205341339111,2.339759588241577,3.972052574157715,4.090841293334961,5.342488765716553
,,133749.743805,0.8311398029327393,0.0,0.0,0.0,0.0,0.0,0.0,0.0,0.0,0.0,0.0,0.0,20568.0,0.01,0.01,-1.0,-1.59,-1.71,-0.24,-10.05,47.56,-53.71,20578.0,-0.0,0.01,-1.01,-1.46,-1.71,-0.24,-11.4,47.26,-55.06,1620,1602848269.725536,1234,0.8045288374690901,-9.89798556767173,2.1782479225953435,0.6740106394744125,1.8486040753506436,2.063495021312386,0.45601671813586386,1.4128966557315463,2.877973457056904,1619,1602848269.725536,4321,0.1342470496892929,1.5437678098678589,2.4190547466278076,3.4367549419403076,4.410312175750732,5.030475616455078
,,133749.763758,0.8510854244232178,0.0,0.0,0.0,0.0,0.0,0.0,0.0,0.0,0.0,0.0,0.0,20588.0,-0.01,0.01,-1.01,-1.52,-1.65,-0.24,-12.3,47.11,-55.66,20598.0,-0.0,0.01,-1.0,-1.34,-1.71,-0.18,-10.2,47.11,-53.86,1622,1602848269.745635,1234,0.9543996655335523,-9.526922330526656,2.8961513301488693,0.29237701106710867,1.3970548090538768,2.0773664141357564,0.6529336414025311,1.4867469384314531,2.1306121597803767,1621,1602848269.745635,4321,0.7829316258430481,1.0289586782455444,2.4220359325408936,3.333634853363037,4.856979846954346,5.911158561706543
,,133749.784125,0.8714520931243896,0.0,0.0,0.0,0.0,0.0,0.0,0.0,0.0,0.0,0.0,0.0,20608.0,-0.0,0.01,-1.0,-1.4,-1.65,-0.18,-11.4,47.26,-54.16,20618.0,0.0,0.0,-1.0,-1.52,-1.65,-0.24,-12.9,46.81,-55.81,1624,1602848269.765671,1234,0.9353342929568604,-9.632693732985134,2.649149555973103,0.36990855750576124,1.9964581401714845,2.1635186555310235,0.3658419404043113,1.0489282540046703,2.984523288634709,1623,1602848269.765671,4321,0.6316854357719421,1.1495198011398315,2.0885255336761475,3.8675196170806885,4.706984996795654,5.950600624084473
,,133749.802918,0.8902208805084229,0.0,0.0,0.0,0.0,0.0,0.0,0.0,0.0,0.0,0.0,0.0,20628.0,-0.01,0.0,-1.01,-1.59,-1.71,-0.24,-12.75,46.36,-53.26,20638.0,-0.0,0.01,-1.01,-1.46,-1.59,-0.3,-10.65,47.11,-54.61,1627,1602848269.79563,1234,0.9306283727979785,-9.475239908918232,2.063963689232588,0.10427365979568226,1.9475641392277878,2.7909402680284465,0.16914481469936782,1.660273201471218,2.837615988518272,1626,1602848269.79563,4321,0.31499868631362915,1.7740726470947266,2.750910520553589,3.541998863220215,4.996934413909912,5.489604949951172
,,133749.877259,0.9645836353302002,0.0,0.0,0.0,0.0,0.0,0.0,0.0,0.0,0.0,0.0,0.0,20703.0,-0.01,-0.0,-1.0,-1.4,-1.59,-0.24,-11.4,47.86,-53.41,20712.0,-0.01,0.01,-1.01,-1.52,-1.65,-0.24,-10.05,46.81,-55.51,1634,1602848269.865542,1234,0.7252232755759435,-9.012460855289852,2.264046302795685,0.4100994880024228,1.112313152472562,2.9150799888174324,0.12792149329601377,1.7210917390534677,2.2402684302796727,1633,1602848269.865542,4321,0.009146702475845814,1.6618998050689697,2.160332679748535,3.8488268852233887,4.929417133331299,5.74566650390625
,,133749.898336,0.9856846332550049,0.0,0.0,0.0,0.0,0.0,0.0,0.0,0.0,0.0,0.0,0.0,20722.0,-0.0,0.01,-1.01,-1.59,-1.59,-0.18,-10.8,46.51,-55.06,20732.0,-0.01,-0.0,-1.01,-1.34,-1.59,-0.18,-12.45,48.31,-54.76,1636,1602848269.885625,1234,0.39006580442055105,-9.013510958313656,2.0608771238017742,0.9443383432213072,1.1434268406001242,2.8166483734604344,0.388489360171119,1.2641082291275816,2.005451996076088,1635,1602848269.885625,4321,0.5523388385772705,1.027092695236206,2.4829790592193604,3.7870757579803467,4.531346321105957,5.044356822967529
,,133749.917963,1.005291223526001,0.0,0.0,0.0,0.0,0.0,0.0,0.0,0.0,0.0,0.0,0.0,20742.0,-0.0,0.0,-1.01,-1.4,-1.65,-0.24,-12.0,46.36,-55.96,20752.0,0.0,0.01,-1.0,-1.4,-1.59,-0.12,-13.05,47.71,-54.61,1638,1602848269.905949,1234,0.8374606020161894,-9.876427046889281,2.9845451457692764,0.19759837826433302,1.8115867930322804,2.182292334774357,0.559169928991768,1.4593662089256798,2.215072207928458,1636,1602848269.895761,4321,0.18650895357131958,1.5949782133102417,2.1425561904907227,3.775350332260132,4.478610515594482,5.064251899719238
,,133749.938041,1.0253722667694092,0.0,0.0,0.0,0.0,0.0,0.0,0.0,0.0,0.0,0.0,0.0,20762.0,-0.0,0.02,-1.01,-1.34,-1.65,-0.3,-11.1,47.86,-55.06,20772.0,-0.01,0.01,-1.01,-1.52,-1.71,-0.3,-11.7,47.41,-54.91,1640,1602848269.92561,1234,0.19150455099205643,-9.588433726983059,2.9198865657765607,0.03020132306348089,1.8827019243721523,2.030425152559201,0.25336753208575147,1.9386407505024508,2.4395121947108547,1639,1602848269.92561,4321,0.35705819725990295,1.68988037109375,2.1660702228546143,3.64186692237854,4.666098594665527,5.166818141937256
,,133749.958601,1.0459325313568115,0.0,0.0,0.0,0.0,0.0,0.0,0.0,0.0,0.0,0.0,0.0,20782.0,-0.0,0.0,-1.01,-1.46,-1.65,-0.24,-10.65,47.71,-55.66,20792.0,-0.0,0.02,-1.01,-1.4,-1.77,-0.18,-11.25,48.16,-55.66,1642,1602848269.946383,1234,0.7477575068387761,-9.695166483061403,2.104831895746915,0.8598017086632228,1.2611014390153867,2.8575191228171004,0.46251574990824007,1.6167818645315069,2.9595913465255252,1641,1602848269.946383,4321,0.5619237422943115,1.0961272716522217,2.1088476181030273,3.3359694480895996,4.486756324768066,5.095455646514893
,,133749.977369,1.0646836757659912,0.0,0.0,0.0,0.0,0.0,0.0,0.0,0.0,0.0,0.0,0.0,20802.0,0.0,0.01,-1.01,-1.59,-1.71,-0.24,-12.75,46.36,-55.36,20812.0,0.0,0.01,-1.01,-1.34,-1.71,-0.24,-12.45,47.26,-53.71,1644,1602848269.965541,1234,0.06258590753838345,-9.6415251734257,2.309482754084457,0.6962906220458768,1.1124445753585315,2.3698100326062455,0.816391047975315,1.3114049089090023,2.1387163946743777,1643,1602848269.965541,4321,0.40524691343307495,1.135056495666504,2.0139501094818115,3.536756753921509,4.812589645385742,5.634300231933594
,,133749.997143,1.0844433307647705,0.0,0.0,0.0,0.0,0.0,0.0,0.0,0.0,0.0,0.0,0.0,20822.0,-0.02,0.01,-1.01,-1.4,-1.71,-0.24,-12.0,47.11,-54.31,20832.0,-0.0,0.0,-1.01,-1.46,-1.65,-0.24,-10.35,46.81,-54.76,1646,1602848269.985593,1234,0.6431967086863344,-9.96109875680096,2.1730162577395458,0.038490460783031644,1.7976993277864706,2.1630684358205112,0.1807978512035595,1.7268777499884416,2.167878857559667,1645,1602848269.985593,4321,0.26832258701324463,1.1115411520004272,2.0673646926879883,3.6498000621795654,4.859027862548828,5.997602939605713
,,133750.072557,1.1598596572875977,0.0,0.0,0.0,0.0,0.0,0.0,0.0,0.0,0.0,0.0,0.0,20898.0,-0.01,0.0,-1.02,-1.46,-1.71,-0.3,-10.2,47.11,-54.61,20908.0,-0.01,0.01,-1.02,-1.4,-1.71,-0.18,-9.9,47.41,-54.91,1654,1602848270.65526,1234,0.12228497814612249,-9.941062445377417,2.7622850208219925,0.42634400346179535,1.075671132724735,2.5057299436321134,0.23578083511359216,1.7314441628150221,2.44473174651561,1653,1602848270.65526,4321,0.48346707224845886,1.6601316928863525,2.5944674015045166,3.2498931884765625,4.983613967895508,5.2539873123168945
,,133750.092763,1.1800734996795654,0.0,0.0,0.0,0.0,0.0,0.0,0.0,0.0,0.0,0.0,0.0,20918.0,-0.0,0.01,-1.0,-1.46,-1.59,-0.3,-10.8,46.21,-55.06,20928.0,0.0,0.0,-1.01,-1.4,-1.52,-0.24,-11.4,47.26,-54.16,1656,1602848270.85606,1234,0.8706253924436033,-9.320385866214096,2.999055366547184,0.6239315609343563,1.753206542344345,2.496756670610833,0.6339910261300751,1.1998742058707252,2.6330266703235394,1655,1602848270.85606,4321,0.38661566376686096,1.639126181602478,2.0004310607910156,3.2439427375793457,4.821938991546631,5.331202507019043
,,133750.113362,1.2007043361663818,0.0,0.0,0.0,0.0,0.0,0.0,0.0,0.0,0.0,0.0,0.0,20938.0,0.0,0.01,-1.01,-1.4,-1.83,-0.18,-9.9,47.71,-54.91,20948.0,0.0,0.01,-1.01,-1.46,-1.83,-0.18,-12.45,48.31,-54.16,1657,1602848270.95577,1234,0.8666543110041218,-9.806980340492622,2.852957490586002,0.9861329614184473,1.962917900266898,2.6449076737150894,0.9625034273039244,1.1776623754654167,2.929291873386664,1656,1602848270.95577,4321,0.6523514986038208,1.89188551902771,2.3539023399353027,3.035273313522339,4.667004108428955,5.243729114532471
,,133750.132895,1.2202227115631104,0.0,0.0,0.0,0.0,0.0,0.0,0.0,0.0,0.0,0.0,0.0,20958.0,-0.01,0.02,-1.02,-1.4,-1.59,0.0,-11.4,46.81,-55.51,20967.0,-0.01,0.01,-1.0,-1.4,-1.59,-0.18,-11.25,47.41,-55.36,1659,1602848270.116992,1234,0.6941846079475298,-9.554407044768686,2.3109618405492003,0.20169035946604785,1.248251998702706,2.676045172250313,0.4172863843224991,1.947089141340394,2.033795040192083,1658,1602848270.116992,4321,0.34059369564056396,1.8927366733551025,2.3507485389709473,3.325937271118164,4.235107898712158,5.482812881469727
,,133750.152525,1.2398407459259033,0.0,0.0,0.0,0.0,0.0,0.0,0.0,0.0,0.0,0.0,0.0,20977.0,-0.0,0.01,-1.01,-1.46,-1.83,-0.18,-11.1,46.81,-54.76,20987.0,-0.01,0.01,-1.01,-1.46,-1.71,-0.12,-11.25,45.61,-54.61,1661,1602848270.138986,1234,0.18681066407780422,-9.125584061612923,2.616390244369191,0.7653193983820996,1.8043753166968912,2.700606131306105,0.4228749750317189,1.1757111982798043,2.784912528810373,1660,1602848270.138986,4321,0.7852314710617065,1.9218950271606445,2.9378440380096436,3.450021743774414,4.516263961791992,5.685937881469727
,,133750.172005,1.2593026161193848,0.0,0.0,0.0,0.0,0.0,0.0,0.0,0.0,0.0,0.0,0.0,20997.0,0.01,0.01,-1.02,-1.34,-1.71,-0.24,-10.95,47.11,-54.91,21007.0,-0.01,0.01,-1.0,-1.59,-1.65,-0.3,-11.25,47.11,-56.26,1664,1602848270.165535,1234,0.5665111642734761,-9.882576146176199,2.3827624413495445,0.7547927048800667,1.040304673018698,2.7158870035990774,0.5153290808553264,1.8679337081520604,2.3119899247373374,1663,1602848270.165535,4321,0.9544357061386108,1.4524940252304077,2.1007275581359863,3.6891913414001465,4.201409339904785,5.850824356079102
,,133750.192926,1.2802529335021973,0.0,0.0,0.0,0.0,0.0,0.0,0.0,0.0,0.0,0.0,0.0,21017.0,-0.01,0.01,-1.01,-1.46,-1.77,-0.18,-10.95,46.06,-55.36,21027.0,-0.01,0.01,-1.01,-1.4,-1.71,-0.12,-11.85,47.26,-55.06,1665,1602848270.175638,1234,0.2501292828649041,-9.181225419725536,2.962803330631342,0.7569432968516828,1.9401072389253744,2.306191737331433,0.2566188801571708,1.9778364489021185,2.565637002303951,1664,1602848270.175638,4321,0.5239670276641846,1.863924503326416,2.325920581817627,3.735051155090332,4.226728439331055,5.146442413330078
,,133750.263425,1.3507556915283203,0.0,0.0,0.0,0.0,0.0,0.0,0.0,0.0,0.0,0.0,0.0,21088.0,0.01,0.0,-1.01,-1.46,-1.71,-0.18,-9.15,47.41,-52.96,21098.0,-0.01,0.01,-1.02,-1.4,-1.77,-0.12,-10.2,47.11,-54.61,1672,1602848270.245604,1234,0.2590099183901995,-9.574911498356819,2.719053495752414,0.03566003320487143,1.9429153974696387,2.9886692797320613,0.2704809059651596,1.5417978190904145,2.6789489686263077,1671,1602848270.245604,4321,0.528886079788208,1.8909891843795776,2.557790756225586,3.6640238761901855,4.815194606781006,5.686501979827881
,,133750.283276,1.3706042766571045,0.0,0.0,0.0,0.0,0.0,0.0,0.0,0.0,0.0,0.0,0.0,21107.0,-0.01,0.01,-1.0,-1.46,-1.59,-0.12,-11.25,46.36,-54.91,21117.0,-0.0,0.01,-1.01,-1.34,-1.71,-0.12,-10.8,47.56,-54.76,1674,1602848270.265619,1234,0.12436717299788358,-9.864965502455147,2.644292624374057,0.8910313023401936,1.8044973902620218,2.8838354261569283,0.4369333205117769,1.574587063316669,2.0382568930779317,1673,1602848270.265619,4321,0.6181246042251587,1.828993558883667,2.9951794147491455,3.898862600326538,4.9735307693481445,5.084139823913574
,,133750.302247,1.389549970626831,0.0,0.0,0.0,0.0,0.0,0.0,0.0,0.0,0.0,0.0,0.0,21127.0,-0.01,0.0,-1.0,-1.46,-1.83,-0.18,-11.25,46.36,-56.26,21137.0,-0.01,0.01,-1.0,-1.52,-1.77,-0.18,-11.4,46.81,-54.76,1677,1602848270.295576,1234,0.548158570964145,-9.983460554674723,2.30679295327271,0.2509306603571745,1.58046434450439,2.685197095515985,0.6767423676538451,1.2557696025171925,2.8360884159380206,1676,1602848270.295576,4321,0.6432417631149292,1.1447938680648804,2.6094095706939697,3.8858482837677,4.085883617401123,5.614090919494629
,,133750.322344,1.4096484184265137,0.0,0.0,0.0,0.0,0.0,0.0,0.0,0.0,0.0,0.0,0.0,21147.0,-0.01,0.01,-1.0,-1.4,-1.71,-0.18,-10.65,46.66,-55.66,21157.0,0.0,0.01,-1.01,-1.28,-1.65,-0.18,-12.3,47.11,-56.71,1679,1602848270.315645,1234,0.4771939566220964,-9.362017840867747,2.075031930725248,0.5448777838354518,1.8396445186112496,2.298768329467405,0.048482837643225474,1.9697483682764272,2.317718916534832,1678,1602848270.315645,4321,0.32629072666168213,1.8405957221984863,2.495157480239868,3.674403190612793,4.935952663421631,5.405422210693359
,,133750.342987,1.4303257465362549,0.0,0.0,0.0,0.0,0.0,0.0,0.0,0.0,0.0,0.0,0.0,21167.0,-0.0,0.01,-1.01,-1.46,-1.59,-0.3,-10.05,47.56,-55.51,21177.0,0.0,0.01,-1.0,-1.4,-1.71,-0.18,-9.6,46.66,-54.91,1680,1602848270.325534,1234,0.33120189509515185,-9.034009483474241,2.6001017211499047,0.2247542184652731,1.4817181984571632,2.045367477042819,0.2818135577748788,1.3269571928184283,2.628863305017993,1679,1602848270.325534,4321,0.34615692496299744,1.5119400024414062,2.108161687850952,3.182553768157959,4.290830612182617,5.675216197967529
,,133750.362745,1.4500718116760254,0.0,0.0,0.0,0.0,0.0,0.0,0.0,0.0,0.0,0.0,0.0,21187.0,-0.01,0.01,-1.01,-1.4,-1.59,-0.24,-10.8,45.76,-54.76,21197.0,0.01,0.01,-1.02,-1.59,-1.71,-0.12,-11.1,46.21,-56.11,1682,1602848270.345615,1234,0.33594558954852916,-9.93407728194854,2.607482198067688,0.35271838819931733,1.1295321717263196,2.536234943377517,0.19914785718748007,1.788492490160408,2.6471982574557877,1681,1602848270.345615,4321,0.3360847234725952,1.3275772333145142,2.0206730365753174,3.720026969909668,4.955026626586914,5.435415267944336
,,133750.38318,1.4705071449279785,0.0,0.0,0.0,0.0,0.0,0.0,0.0,0.0,0.0,0.0,0.0,21207.0,-0.0,0.01,-1.01,-1.52,-1.65,-0.3,-10.35,48.31,-54.76,21217.0,-0.0,0.01,-1.01,-1.46,-1.52,-0.18,-11.85,46.51,-55.51,1684,1602848270.366402,1234,0.2682239719146604,-9.460747734278998,2.11044175897672,0.46523827606133794,1.9210443450501067,2.7683807869331236,0.5552163015206298,1.9672793004608453,2.252267306086654,1683,1602848270.366402,4321,0.42816290259361267,1.5777791738510132,2.2878174781799316,3.1451504230499268,4.969012260437012,5.984711647033691
,,133750.52171,1.609027624130249,0.0,0.0,0.0,0.0,0.0,0.0,0.0,0.0,0.0,0.0,0.0,21281.0,-0.01,0.01,-1.0,-1.52,-1.71,-0.18,-9.3,48.31,-54.46,21356.0,-0.01,0.0,-1.02,-1.46,-1.65,-0.18,-12.15,46.81,-55.51,1698,1602848270.505599,1234,0.9812065572207972,-9.82805235015305,2.2470958970586983,0.4691705467303199,1.2778541831083283,2.6893344639592587,0.4057712273864723,1.4801797742638922,2.171019896383032,1697,1602848270.505599,4321,0.6068942546844482,1.0097390413284302,2.248720645904541,3.0256426334381104,4.474769592285156,5.242295742034912
,,133750.542767,1.6300852298736572,0.0,0.0,0.0,0.0,0.0,0.0,0.0,0.0,0.0,0.0,0.0,21367.0,-0.01,0.0,-1.01,-1.52,-1.71,-0.18,-11.25,47.11,-55.66,21377.0,-0.0,0.02,-1.01,-1.4,-1.77,-0.3,-11.85,46.81,-55.06,1700,1602848270.52562,1234,0.0811340641667474,-9.281401266976076,2.518786367246266,0.17871402547113402,1.8068860004369398,2.191392120991538,0.2676884567119213,1.839707443348943,2.006434328494368,1699,1602848270.52562,4321,0.49605461955070496,1.1095292568206787,2.247311592102051,3.849562168121338,4.449710369110107,5.681005001068115
,,133750.562649,1.6499664783477783,0.0,0.0,0.0,0.0,0.0,0.0,0.0,0.0,0.0,0.0,0.0,21387.0,-0.0,0.02,-1.01,-1.34,-1.71,-0.24,-11.25,48.16,-54.31,21397.0,0.0,0.01,-1.01,-1.34,-1.77,-0.12,-12.0,46.36,-54.61,1702,1602848270.545622,1234,0.7016394587838564,-9.643448724747271,2.478006338659305,0.9592554653702264,1.9807828003574657,2.2782542741510263,0.3185704257782912,1.4605299061624812,2.8858783898036227,1701,1602848270.545622,4321,0.3397047519683838,1.8848191499710083,2.81624698638916,3.2611172199249268,4.3662004470825195,5.412404537200928
,,133750.583446,1.6707825660705566,0.0,0.0,0.0,0.0,0.0,0.0,0.0,0.0,0.0,0.0,0.0,21407.0,-0.0,0.0,-1.0,-1.46,-1.65,-0.24,-11.4,46.81,-54.16,21417.0,-0.0,0.01,-0.99,-1.46,-1.71,-0.3,-12.0,47.11,-54.91,1704,1602848270.565608,1234,0.36933022848612007,-9.235396409787505,2.2432996314468614,0.9034882421532812,1.4723993837212899,2.5295560000057424,0.3954375571450618,1.7308821763178226,2.5720532665457805,1703,1602848270.565608,4321,0.07497110217809677,1.8936504125595093,2.823350429534912,3.9809913635253906,4.6518707275390625,5.5077948570251465
,,133750.602519,1.6898255348205566,0.0,0.0,0.0,0.0,0.0,0.0,0.0,0.0,0.0,0.0,0.0,21427.0,-0.0,0.01,-1.02,-1.46,-1.65,-0.12,-12.15,46.81,-55.51,21437.0,-0.0,0.0,-1.0,-1.46,-1.71,-0.12,-12.0,48.76,-54.31,1707,1602848270.595562,1234,0.7061679993764407,-9.341856750740384,2.0136610396348775,0.5722645986613878,1.3304854778981494,2.5771687236312646,0.8131877367503773,1.1551323147316614,2.132134912760624,1706,1602848270.595562,4321,0.4264715909957886,1.740389347076416,2.8614964485168457,3.4226014614105225,4.2863450050354,5.229409694671631
,,133750.621981,1.7092819213867188,0.0,0.0,0.0,0.0,0.0,0.0,0.0,0.0,0.0,0.0,0.0,21446.0,-0.01,0.01,-1.0,-1.52,-1.71,-0.24,-11.25,47.71,-55.36,21457.0,-0.0,0.01,-1.01,-1.4,-1.77,-0.37,-10.65,46.66,-54.61,1709,1602848270.615525,1234,0.58258963485381,-9.566406507707011,2.4991193678976207,0.8703651486177484,1.6947484973765663,2.4543752430034527,0.9370899043914637,1.5817084792679637,2.77823682971957,1708,1602848270.615525,4321,0.9786957502365112,1.6440191268920898,2.672938346862793,3.0898525714874268,4.131371974945068,5.705615043640137
,,133750.641858,1.7291584014892578,0.0,0.0,0.0,0.0,0.0,0.0,0.0,0.0,0.0,0.0,0.0,21466.0,-0.01,0.0,-1.01,-1.59,-1.65,-0.12,-10.65,47.41,-55.66,21477.0,-0.01,0.01,-1.02,-1.28,-1.71,-0.18,-9.9,46.06,-55.36,1711,1602848270.635658,1234,0.650593643962555,-9.41276848716421,2.0546810878047523,0.5399173897219667,1.5386575566617258,2.9194340754915995,0.9338826303095721,1.610172377380712,2.168270561985328,1710,1602848270.635658,4321,0.4660053849220276,1.6483489274978638,2.968308210372925,3.935593605041504,4.710723876953125,5.6997575759887695
,,133750.716719,1.8040552139282227,0.0,0.0,0.0,0.0,0.0,0.0,0.0,0.0,0.0,0.0,0.0,21541.0,0.01,0.01,-1.0,-1.28,-1.65,-0.24,-9.3,47.26,-53.41,21551.0,-0.01,0.0,-1.0,-1.46,-1.65,-0.18,-10.65,48.76,-55.36,1717,1602848270.695701,1234,0.6901696566579013,-9.739848641795628,2.750508070728025,0.3503492732756026,1.983458524029892,2.0690520605097418,0.3239689376054523,1.5234236047206826,2.1183163874815807,1716,1602848270.695701,4321,0.7893423438072205,1.2297734022140503,2.859989643096924,3.1890881061553955,4.0999884605407715,5.911375045776367
,,133750.735414,1.8227429389953613,0.0,0.0,0.0,0.0,0.0,0.0,0.0,0.0,0.0,0.0,0.0,21560.0,-0.0,0.01,-1.01,-1.4,-1.83,-0.18,-10.05,46.81,-54.76,21570.0,0.0,0.0,-1.02,-1.4,-1.71,0.0,-10.8,47.56,-54.46,1719,1602848270.716458,1234,0.04240775060993596,-9.683048055801034,2.528498965388733,0.7078392123393916,1.7260826680013261,2.5314144382645023,0.3048694343791698,1.407263956762161,2.9329535585306967,1718,1602848270.716458,4321,0.9910663962364197,1.5828760862350464,2.195624351501465,3.8197686672210693,4.60520076751709,5.928780555725098
,,133750.754421,1.8417284488677979,0.0,0.0,0.0,0.0,0.0,0.0,0.0,0.0,0.0,0.0,0.0,21579.0,0.0,0.0,-1.0,-1.34,-1.65,-0.12,-11.1,48.61,-55.51,21588.0,0.0,0.01,-1.01,-1.46,-1.71,-0.24,-12.45,48.31,-55.51,1721,1602848270.73959,1234,0.43622399672221346,-9.171164899085712,2.2990860367968953,0.30717068437996065,1.7829098603143239,2.2670514084091327,0.7650468399921488,1.255380143415736,2.447366285448201,1720,1602848270.73959,4321,0.781650722026825,1.0896717309951782,2.1940033435821533,3.8759822845458984,4.255884170532227,5.069596767425537
,,133750.772485,1.8598065376281738,0.0,0.0,0.0,0.0,0.0,0.0,0.0,0.0,0.0,0.0,0.0,21598.0,-0.01,0.01,-1.01,-1.4,-1.65,-0.18,-11.1,48.61,-54.76,21607.0,-0.0,0.01,-1.02,-1.4,-1.77,-0.24,-11.4,46.51,-54.76,1724,1602848270.765529,1234,0.9780859588288993,-9.120395600633097,2.1371870336229097,0.7515982779227582,1.452723702980128,2.188373746410822,0.6468609374891982,1.8407474103597758,2.954813519470392,1723,1602848270.765529,4321,0.20084956288337708,1.9954506158828735,2.720658779144287,3.405366897583008,4.085395336151123,5.736746788024902
,,133750.792058,1.8793857097625732,0.0,0.0,0.0,0.0,0.0,0.0,0.0,0.0,0.0,0.0,0.0,21617.0,-0.0,0.01,-1.02,-1.34,-1.59,-0.18,-12.0,47.71,-55.36,21626.0,-0.0,0.01,-1.02,-1.4,-1.77,-0.24,-11.1,47.56,-55.06,1725,1602848270.775661,1234,0.31583726850998695,-9.78122871084485,2.2305561814918073,0.2851599769630322,1.2238152039060868,2.6288606722643864,0.7810789349611686,1.2492794173687614,2.5273336255022736,1724,1602848270.775661,4321,0.3377209007740021,1.5762253999710083,2.7653660774230957,3.9420220851898193,4.139640808105469,5.020234107971191
,,133750.810193,1.897495985031128,0.0,0.0,0.0,0.0,0.0,0.0,0.0,0.0,0.0,0.0,0.0,21636.0,-0.01,0.01,-1.01,-1.52,-1.71,-0.24,-10.2,47.11,-57.01,21645.0,-0.02,0.01,-1.02,-1.34,-1.71,-0.18,-10.2,47.11,-57.01,1727,1602848270.795831,1234,0.9843081023469562,-9.891739026435973,2.0957375718819136,0.6671967506775327,1.5879800054311481,2.2041270938080175,0.7101182012113659,1.879612754516016,2.0631180035762298,1726,1602848270.795831,4321,0.7593628764152527,1.0067212581634521,2.345017433166504,3.5842249393463135,4.43612003326416,5.145622730255127
,,133750.829131,1.9164402484893799,0.0,0.0,0.0,0.0,0.0,0.0,0.0,0.0,0.0,0.0,0.0,21654.0,0.0,0.0,-1.01,-1.46,-1.71,-0.18,-11.4,46.81,-55.81,21664.0,-0.0,0.0,-1.01,-1.4,-1.59,-0.18,-10.95,46.66,-54.31,1729,1602848270.815643,1234,0.3006236901424466,-9.166568130136007,2.2455400167811055,0.3834853727445824,1.0783897491405718,2.1092133174133587,0.7861568527202965,1.4920973005996205,2.062845099845445,1728,1602848270.815643,4321,0.4874047040939331,1.9802162647247314,2.62514591217041,3.3874306678771973,4.2686357498168945,5.7216901779174805
,,133750.900683,1.9879865646362305,0.0,0.0,0.0,0.0,0.0,0.0,0.0,0.0,0.0,0.0,0.0,21726.0,0.0,0.01,-1.01,-1.34,-1.83,-0.12,-10.35,47.26,-53.11,21735.0,-0.01,0.0,-1.0,-1.28,-1.83,-0.18,-10.35,47.26,-53.11,1737,1602848270.895564,1234,0.10196020078359336,-9.55057653364982,2.569404167374011,0.19548273663582916,1.3499550709807493,2.9891666364424454,0.9784731014602257,1.7105327568552517,2.462898337158425,1736,1602848270.895564,4321,0.6355626583099365,1.2534310817718506,2.3379480838775635,3.0191538333892822,4.767369270324707,5.725507736206055
,,133750.91972,2.0070347785949707,0.0,0.0,0.0,0.0,0.0,0.0,0.0,0.0,0.0,0.0,0.0,21745.0,0.0,0.01,-1.0,-1.52,-1.77,-0.12,-10.65,48.16,-55.96,21754.0,-0.01,0.0,-1.01,-1.4,-1.65,-0.18,-10.2,46.66,-54.61,1738,1602848270.905597,1234,0.2563236778579284,-9.991782117674328,2.0027763015731863,0.8224378823818704,1.9528224749263376,2.0401120228241654,0.1690471290534813,1.1161774273780516,2.7558140552897425,1737,1602848270.905597,4321,0.12524007260799408,1.111176609992981,2.6402294635772705,3.7577590942382812,4.969144821166992,5.286116123199463
,,133750.939211,2.0265376567840576,0.0,0.0,0.0,0.0,0.0,0.0,0.0,0.0,0.0,0.0,0.0,21763.0,0.0,0.01,-1.0,-1.46,-1.71,-0.18,-11.7,47.11,-54.61,21773.0,0.0,0.01,-1.02,-1.46,-1.65,-0.24,-11.4,48.91,-55.81,1740,1602848270.925572,1234,0.6944873784510214,-9.925046992289396,2.343774512556406,0.12001504715970979,1.610519687435527,2.836082261585413,0.07854449806961816,1.9109746228577928,2.958185247672308,1739,1602848270.925572,4321,0.12034221738576889,1.9961193799972534,2.8260910511016846,3.6556830406188965,4.4686150550842285,5.607032775878906
,,133750.957582,2.044896364212036,0.0,0.0,0.0,0.0,0.0,0.0,0.0,0.0,0.0,0.0,0.0,21782.0,-0.01,0.0,-1.02,-1.34,-1.59,-0.18,-10.2,46.66,-53.86,21792.0,-0.01,0.02,-1.01,-1.34,-1.59,-0.18,-11.4,48.31,-55.81,1742,1602848270.945582,1234,0.1677554930047358,-9.754289840644025,2.64379987538664,0.2176689845690788,1.1945181791978203,2.8701591390501715,0.6679387593579231,1.2938492775966148,2.160385815768409,1741,1602848270.945582,4321,0.32215410470962524,1.9032025337219238,2.5056686401367188,3.455669403076172,4.656133651733398,5.963444709777832
,,133750.976264,2.063593864440918,0.0,0.0,0.0,0.0,0.0,0.0,0.0,0.0,0.0,0.0,0.0,21801.0,-0.0,0.01,-1.0,-1.46,-1.71,0.0,-12.15,46.81,-56.11,21811.0,-0.01,0.02,-1.0,-1.34,-1.77,-0.12,-11.7,47.41,-55.66,1744,1602848270.965578,1234,0.3875681991535028,-9.792501830634436,2.345785009118689,0.5910407316855006,1.4606667827065452,2.407265743027188,0.6570108826386504,1.2114175364459046,2.373875065693629,1743,1602848270.965578,4321,0.10792268067598343,1.1128361225128174,2.656216859817505,3.0546987056732178,4.818345546722412,5.450194358825684
,,133750.996094,2.0834312438964844,0.0,0.0,0.0,0.0,0.0,0.0,0.0,0.0,0.0,0.0,0.0,21820.0,-0.01,0.0,-1.0,-1.4,-1.83,-0.24,-11.7,46.66,-54.31,21830.0,-0.0,0.01,-1.0,-1.34,-1.71,-0.18,-12.0,46.66,-55.36,1746,1602848270.985608,1234,0.17248416471464434,-9.973983672622397,2.0149043106662425,0.2982257576380155,1.7471515633039274,2.2702925352324206,0.746121150101008,1.4421508799531924,2.453416472421311,1745,1602848270.985608,4321,0.8630820512771606,1.9470173120498657,2.5165929794311523,3.4312963485717773,4.209499835968018,5.994536399841309
,,133751.014449,2.1017954349517822,0.0,0.0,0.0,0.0,0.0,0.0,0.0,0.0,0.0,0.0,0.0,21839.0,-0.0,0.01,-1.02,-1.46,-1.59,-0.24,-10.8,48.31,-55.06,21848.0,-0.01,0.01,-1.0,-1.46,-1.65,-0.3,-11.7,47.41,-53.86,1747,1602848270.995687,1234,0.2881344263530936,-9.361914487668532,2.4639840792338816,0.42997093887878624,1.66124123406397,2.5496111684320635,0.23030739900223907,1.87481450175183,2.4401888793824495,1746,1602848270.995687,4321,0.442027747631073,1.7533541917800903,2.4804036617279053,3.5214273929595947,4.911807537078857,5.911392688751221
,,133751.086309,2.173619508743286,0.0,0.0,0.0,0.0,0.0,0.0,0.0,0.0,0.0,0.0,0.0,21911.0,-0.0,0.0,-1.02,-1.46,-1.71,-0.18,-9.75,47.86,-54.76,21921.0,-0.0,0.01,-1.01,-1.52,-1.71,-0.24,-10.65,47.41,-54.31,1755,1602848271.75854,1234,0.6885073194636951,-9.47304599544266,2.2372374945317954,0.5050684699483081,1.3401893395739388,2.1855634753955346,0.9785616051602212,1.406071273651924,2.9214773627849002,1754,1602848271.75854,4321,0.5345136523246765,1.0880351066589355,2.195296049118042,3.209754705429077,4.443033695220947,5.410725116729736
,,133751.105805,2.1931326389312744,0.0,0.0,0.0,0.0,0.0,0.0,0.0,0.0,0.0,0.0,0.0,21930.0,-0.01,0.01,-1.0,-1.52,-1.71,-0.18,-10.05,47.26,-54.76,21940.0,-0.0,0.01,-1.0,-1.4,-1.71,-0.12,-11.7,48.16,-54.31,1757,1602848271.956,1234,0.7741168402906925,-9.425558059836645,2.6744169159466384,0.5885158695257572,1.4678258817467973,2.7632970197619913,0.21470473625024933,1.4525559491874007,2.9770670817588307,1756,1602848271.956,4321,0.038258541375398636,1.5070852041244507,2.553269624710083,3.5873525142669678,4.8993144035339355,5.495072364807129
,,133751.124659,2.211986541748047,0.0,0.0,0.0,0.0,0.0,0.0,0.0,0.0,0.0,0.0,0.0,21949.0,-0.0,0.01,-1.02,-1.52,-1.71,-0.24,-10.8,47.86,-55.51,21959.0,-0.01,0.01,-1.0,-1.28,-1.65,-0.3,-11.1,46.21,-56.41,1758,1602848271.105605,1234,0.025497882936254546,-9.882623839935208,2.7965667366891918,0.4597118944951831,1.612442112336009,2.518989056321738,0.9418282557417351,1.259122348362009,2.4370070768851386,1757,1602848271.105605,4321,0.46960026025772095,1.2564421892166138,2.733717441558838,3.5237035751342773,4.016631126403809,5.831313133239746
,,133751.143215,2.2305285930633545,0.0,0.0,0.0,0.0,0.0,0.0,0.0,0.0,0.0,0.0,0.0,21968.0,-0.0,0.01,-1.0,-1.28,-1.65,-0.37,-12.0,47.71,-55.36,21977.0,-0.01,0.01,-1.02,-1.46,-1.65,-0.37,-11.25,47.71,-55.96,1760,1602848271.12562,1234,0.543311733215082,-9.792401829381658,2.2432409362220325,0.9449250057730539,1.887960969515169,2.2213450812052353,0.3985959923881507,1.6397464728541022,2.1342457819310314,1759,1602848271.12562,4321,0.40557271242141724,1.823732614517212,2.9909846782684326,3.8035519123077393,4.953775882720947,5.415007591247559
,,133751.162134,2.249451160430908,0.0,0.0,0.0,0.0,0.0,0.0,0.0,0.0,0.0,0.0,0.0,21987.0,-0.0,0.01,-1.01,-1.28,-1.71,-0.3,-11.7,46.66,-54.31,21996.0,-0.0,0.01,-1.02,-1.46,-1.65,-0.18,-11.4,48.31,-55.81,1762,1602848271.145583,1234,0.8358943918981411,-9.933886279973882,2.5289597104018093,0.6764300353388957,1.4920866485661937,2.5128452142538036,0.22284725329012978,1.0964319782769838,2.422670567417235,1761,1602848271.145583,4321,0.7201195955276489,1.6240668296813965,2.819129228591919,3.8506178855895996,4.681096076965332,5.24619197845459
,,133751.181616,2.2689502239227295,0.0,0.0,0.0,0.0,0.0,0.0,0.0,0.0,0.0,0.0,0.0,22006.0,0.0,0.01,-1.02,-1.4,-1.65,-0.24,-10.35,48.61,-56.11,22015.0,0.0,0.01,-1.01,-1.46,-1.77,-0.3,-11.1,46.81,-55.81,1764,1602848271.165652,1234,0.09824285151671075,-9.749591011447487,2.9043112990467606,0.4654171215380757,1.029390701819049,2.96416408595931,0.788650297697021,1.9521043338313802,2.416474255731406,1763,1602848271.165652,4321,0.7767361998558044,1.5608114004135132,2.5493693351745605,3.1275086402893066,4.170840263366699,5.581312656402588
,,133751.199586,2.286890983581543,0.0,0.0,0.0,0.0,0.0,0.0,0.0,0.0,0.0,0.0,0.0,22025.0,-0.01,0.02,-1.01,-1.4,-1.65,-0.18,-11.1,46.81,-55.81,22034.0,-0.0,0.02,-1.0,-1.46,-1.71,-0.24,-11.25,46.36,-55.36,1766,1602848271.185646,1234,0.4604291564633145,-9.624066317904127,2.7254199301513427,0.9607293465986239,1.9697161985547618,2.689816944010974,0.3569005451423447,1.7399740696620853,2.375729948824445,1765,1602848271.185646,4321,0.002493258100003004,1.707769513130188,2.976499319076538,3.134838104248047,4.832109451293945,5.234263896942139
,,133751.272314,2.3596127033233643,0.0,0.0,0.0,0.0,0.0,0.0,0.0,0.0,0.0,0.0,0.0,22097.0,-0.0,0.0,-1.02,-1.52,-1.71,-0.24,-10.35,47.56,-54.76,22107.0,-0.0,0.0,-1.01,-1.34,-1.59,-0.18,-11.4,47.86,-54.76,1774,1602848271.265568,1234,0.24100980083854062,-9.897763113162958,2.958425783135212,0.4448757742428425,1.1617456922091578,2.783363810487963,0.37979515183981516,1.8363656687443886,2.6332106643881374,1773,1602848271.265568,4321,0.1747490018606186,1.062084436416626,2.8294618129730225,3.3247294425964355,4.529434680938721,5.424466133117676
,,133751.292634,2.379941940307617,0.0,0.0,0.0,0.0,0.0,0.0,0.0,0.0,0.0,0.0,0.0,22117.0,-0.01,0.01,-1.0,-1.52,-1.71,-0.12,-10.05,47.26,-56.41,22127.0,-0.0,0.01,-1.01,-1.59,-1.71,-0.18,-11.7,48.16,-54.61,1776,1602848271.285605,1234,0.1941529680675963,-9.9763323275133,2.270088331715342,0.779434335936631,1.0638213597388928,2.4414516651776146,0.1863845641611106,1.5373188763263557,2.690742538526088,1775,1602848271.285605,4321,0.19815649092197418,1.688737392425537,2.173762798309326,3.959709405899048,4.842989921569824,5.5829033851623535
,,133751.312315,2.3996164798736572,0.0,0.0,0.0,0.0,0.0,0.0,0.0,0.0,0.0,0.0,0.0,22137.0,0.0,0.01,-1.01,-1.4,-1.71,-0.18,-11.7,46.36,-54.91,22147.0,-0.0,0.01,-1.0,-1.34,-1.71,-0.24,-12.15,46.21,-55.81,1778,1602848271.305537,1234,0.18421069063344475,-9.06155728749456,2.960092719670138,0.47425996933358494,1.2062180900763648,2.9711073418141316,0.007305929545600165,1.7254085662674816,2.8629085086749333,1777,1602848271.305537,4321,0.3064407706260681,1.447904348373413,2.896855115890503,3.7418458461761475,4.5786824226379395,5.493419170379639
,,133751.332829,2.4201624393463135,0.0,0.0,0.0,0.0,0.0,0.0,0.0,0.0,0.0,0.0,0.0,22157.0,0.0,0.0,-1.01,-1.4,-1.71,-0.12,-11.1,46.81,-54.46,22167.0,0.0,0.01,-1.0,-1.52,-1.71,-0.12,-10.95,47.41,-54.91,1779,1602848271.315532,1234,0.650132170048847,-9.361595612861223,2.0954739616480396,0.05167819549290775,1.1530997343642069,2.929336014973745,0.042388554035100556,1.217018615794633,2.390844426215968,1778,1602848271.315532,4321,0.4127788841724396,1.2541344165802002,2.3824551105499268,3.0873777866363525,4.227517127990723,5.642952919006348
,,133751.352066,2.4393696784973145,0.0,0.0,0.0,0.0,0.0,0.0,0.0,0.0,0.0,0.0,0.0,22177.0,-0.0,0.01,-1.01,-1.4,-1.65,-0.18,-12.0,47.11,-53.56,22187.0,-0.0,0.0,-1.02,-1.4,-1.65,-0.24,-10.95,48.16,-54.91,1782,1602848271.345559,1234,0.030846948725635537,-9.725182051241724,2.3795951535029154,0.18442865854029444,1.7677752596276934,2.0862174507496944,0.24089091084830327,1.726770579918154,2.239277488231171,1781,1602848271.345559,4321,0.2529473602771759,1.0340079069137573,2.7342617511749268,3.4686808586120605,4.5990753173828125,5.794686317443848
,,133751.372599,2.459932327270508,0.0,0.0,0.0,0.0,0.0,0.0,0.0,0.0,0.0,0.0,0.0,22197.0,0.0,0.01,-1.01,-1.4,-1.71,-0.18,-12.3,46.36,-54.61,22206.0,-0.01,0.01,-1.0,-1.28,-1.65,-0.3,-11.25,46.36,-54.91,1783,1602848271.355635,1234,0.8718239839992751,-9.436704172446827,2.2418012482962473,0.3795298076509448,1.3065188218783965,2.762031279029997,0.29039588675135086,1.5146171073198316,2.654777626088757,1782,1602848271.355635,4321,0.41654130816459656,1.7235759496688843,2.1596367359161377,3.244913101196289,4.280250549316406,5.8971943855285645
,,133751.392213,2.479556083679199,0.0,0.0,0.0,0.0,0.0,0.0,0.0,0.0,0.0,0.0,0.0,22216.0,-0.0,0.01,-1.01,-1.34,-1.71,-0.12,-10.65,47.11,-55.36,22226.0,-0.0,0.01,-1.0,-1.46,-1.65,-0.12,-10.8,46.51,-55.81,1785,1602848271.375631,1234,0.4843228187449965,-9.045576645484893,2.970937388429456,0.0021064322993921136,1.5974419681801222,2.4300868329563783,0.7940471218902193,1.1869903809629871,2.2163547370086953,1784,1602848271.375631,4321,0.17207932472229004,1.1829568147659302,2.1371328830718994,3.60367488861084,4.386957168579102,5.5240373611450195
,,133751.465983,2.5532877445220947,0.0,0.0,0.0,0.0,0.0,0.0,0.0,0.0,0.0,0.0,0.0,22290.0,-0.01,0.01,-1.02,-1.4,-1.71,-0.24,-10.05,48.31,-55.06,22300.0,-0.0,0.01,-1.02,-1.4,-1.59,-0.18,-12.75,47.41,-54.61,1793,1602848271.455569,1234,0.9876973395683669,-9.556933852974884,2.8233565493918755,0.39106422375004046,1.7663166896871303,2.740626380753309,0.7153016819304201,1.4038298786810022,2.7340143725064845,1792,1602848271.455569,4321,0.716616690158844,1.2450263500213623,2.7257556915283203,3.4515700340270996,4.156704425811768,5.743839263916016
,,133751.48578,2.573087453842163,0.0,0.0,0.0,0.0,0.0,0.0,0.0,0.0,0.0,0.0,0.0,22310.0,0.0,0.0,-1.01,-1.52,-1.65,-0.12,-11.1,47.56,-53.41,22320.0,-0.01,0.0,-1.02,-1.46,-1.59,-0.24,-11.4,47.86,-55.51,1795,1602848271.47556,1234,0.33039772043064153,-9.285168300705111,2.574828252320178,0.8490043160497207,1.549231181988842,2.426973776375693,0.41830830746673453,1.0420424271919957,2.485053872080384,1794,1602848271.47556,4321,0.6304754018783569,1.545304775238037,2.9560482501983643,3.008953332901001,4.372027397155762,5.266926288604736
,,133751.505528,2.5928282737731934,0.0,0.0,0.0,0.0,0.0,0.0,0.0,0.0,0.0,0.0,0.0,22330.0,-0.0,0.0,-1.0,-1.46,-1.71,-0.12,-11.4,47.26,-55.06,22340.0,0.0,0.01,-1.02,-1.4,-1.65,-0.12,-12.0,48.16,-55.36,1797,1602848271.495543,1234,0.390457015212169,-9.792299711804358,2.858686260577208,0.3598753930434,1.1517332028597727,2.2907419553502506,0.6472020794934533,1.50975846928461,2.2579866230003214,1796,1602848271.495543,4321,0.27805206179618835,1.043218731880188,2.0347514152526855,3.8968653678894043,4.505103588104248,5.747337341308594
,,133751.52622,2.613546848297119,0.0,0.0,0.0,0.0,0.0,0.0,0.0,0.0,0.0,0.0,0.0,22350.0,-0.01,0.01,-1.0,-1.46,-1.77,-0.24,-11.4,45.76,-55.51,22360.0,-0.0,0.01,-1.01,-1.52,-1.59,-0.24,-12.45,48.31,-55.51,1799,1602848271.515541,1234,0.6514959429893962,-9.38724902278288,2.668321088281509,0.47394080285931894,1.4891955454611185,2.654637503644631,0.5697347903289424,1.1110593018145032,2.31480069065806,1798,1602848271.515541,4321,0.3648276925086975,1.1350191831588745,2.1189992427825928,3.34898042678833,4.6415605545043945,5.242687225341797
,,133751.546195,2.6335229873657227,0.0,0.0,0.0,0.0,0.0,0.0,0.0,0.0,0.0,0.0,0.0,22370.0,-0.01,0.01,-1.01,-1.4,-1.52,-0.3,-12.15,47.26,-53.71,22380.0,-0.0,0.01,-1.01,-1.46,-1.77,-0.24,-12.0,47.41,-53.86,1800,1602848271.525602,1234,0.022722511289212433,-9.859300685117493,2.206952855476843,0.9194700045551732,1.9659639836722291,2.5346798721183594,0.055063879079498945,1.6963555357355689,2.539659371897815,1799,1602848271.525602,4321,0.30947205424308777,1.6981374025344849,2.247260332107544,3.9150822162628174,4.0683913230896,5.88782262802124
,,133751.565466,2.65277099609375,0.0,0.0,0.0,0.0,0.0,0.0,0.0,0.0,0.0,0.0,0.0,22390.0,-0.01,0.01,-1.01,-1.34,-1.71,-0.24,-10.2,47.71,-55.66,22400.0,-0.0,0.01,-1.0,-1.46,-1.65,-0.3,-11.4,46.81,-54.76,1803,1602848271.555601,1234,0.8971981710970734,-9.338201323677962,2.242752266973332,0.7563251008919432,1.085404778145914,2.4958552760353223,0.36491614804631667,1.5737116546858319,2.8016741232896125,1802,1602848271.555601,4321,0.8079069256782532,1.7081135511398315,2.994968891143799,3.157817840576172,4.946739196777344,5.645284652709961
,,133751.586115,2.673447847366333,0.0,0.0,0.0,0.0,0.0,0.0,0.0,0.0,0.0,0.0,0.0,22410.0,0.0,0.01,-1.02,-1.46,-1.71,-0.18,-11.1,47.86,-55.51,22420.0,-0.0,0.01,-1.0,-1.52,-1.65,-0.24,-10.2,46.66,-53.86,1805,1602848271.575627,1234,0.7046746540003647,-9.447007792055297,2.565098768228122,0.6982432433094657,1.1519143867581065,2.8539333074518494,0.9486411872732802,1.1907946240695475,2.506156909818876,1804,1602848271.575627,4321,0.6285068988800049,1.5625954866409302,2.8770687580108643,3.656890392303467,4.586767196655273,5.219751834869385
,,133751.658115,2.7454144954681396,0.0,0.0,0.0,0.0,0.0,0.0,0.0,0.0,0.0,0.0,0.0,22483.0,-0.0,0.01,-1.01,-1.4,-1.65,-0.3,-11.25,46.66,-54.61,22493.0,-0.01,0.01,-1.0,-1.46,-1.71,-0.24,-9.75,47.56,-54.46,1812,1602848271.645545,1234,0.8401295252198737,-9.411725698746993,2.4062969320378698,0.512632613625029,1.863851642452381,2.8127257756453448,0.07004896071627842,1.5824963415877258,2.7147591196751666,1811,1602848271.645545,4321,0.24183975160121918,1.0859419107437134,2.9016222953796387,3.6813719272613525,4.900386333465576,5.77911901473999
,,133751.678691,2.7660281658172607,0.0,0.0,0.0,0.0,0.0,0.0,0.0,0.0,0.0,0.0,0.0,22503.0,0.0,-0.0,-1.01,-1.34,-1.59,-0.18,-11.4,48.31,-55.06,22513.0,-0.0,0.01,-1.01,-1.52,-1.71,0.0,-10.95,47.11,-54.31,1814,1602848271.665538,1234,0.8704062486418682,-9.828152923833397,2.6684853426946438,0.48408960852494254,1.3798317691233113,2.2439094450382377,0.6471932289722055,1.71723462838359,2.765805754527812,1813,1602848271.665538,4321,0.4023650288581848,1.8159282207489014,2.532087564468384,3.766124963760376,4.603427410125732,5.608364582061768
,,133751.698242,2.7855522632598877,0.0,0.0,0.0,0.0,0.0,0.0,0.0,0.0,0.0,0.0,0.0,22522.0,-0.01,0.0,-1.0,-1.34,-1.77,-0.18,-9.75,47.86,-55.06,22532.0,0.0,0.01,-1.01,-1.4,-1.77,-0.24,-12.0,47.11,-54.31,1816,1602848271.685542,1234,0.8081160540678917,-9.414411333866244,2.2933110636259117,0.8892157361488563,1.7085856703692066,2.580860969560221,0.8572277291101045,1.9050641083714603,2.760472701528482,1815,1602848271.685542,4321,0.27557945251464844,1.8842206001281738,2.0654656887054443,3.6415038108825684,4.422836780548096,5.33984899520874
,,133751.717879,2.805182695388794,0.0,0.0,0.0,0.0,0.0,0.0,0.0,0.0,0.0,0.0,0.0,22542.0,-0.01,0.01,-1.01,-1.4,-1.71,-0.18,-11.1,48.31,-54.46,22552.0,-0.01,-0.0,-1.01,-1.28,-1.65,-0.3,-10.8,47.56,-55.06,1818,1602848271.705577,1234,0.11860146355785317,-9.392551337951556,2.2685618331009647,0.15401840026154712,1.3624732690622707,2.6183337816266126,0.7554468390636107,1.9057787415054608,2.2391217947966604,1817,1602848271.705577,4321,0.1302703469991684,1.9737565517425537,2.2916417121887207,3.00607967376709,4.788744926452637,5.3616790771484375
,,133751.738687,2.8260250091552734,0.0,0.0,0.0,0.0,0.0,0.0,0.0,0.0,0.0,0.0,0.0,22562.0,0.0,0.01,-1.01,-1.46,-1.71,-0.24,-14.1,46.66,-54.61,22572.0,0.0,0.02,-1.01,-1.52,-1.71,-0.12,-12.45,46.81,-55.51,1820,1602848271.725556,1234,0.9847391331126659,-9.967239085210911,2.662347610539946,0.3024615102915871,1.38534247947874,2.916014163477141,0.52309060487586,1.1119763239219074,2.4589666437756876,1819,1602848271.725556,4321,0.4884922504425049,1.4917546510696411,2.553178310394287,3.0458059310913086,4.956360816955566,5.085525989532471
,,133751.758099,2.845407485961914,0.0,0.0,0.0,0.0,0.0,0.0,0.0,0.0,0.0,0.0,0.0,22582.0,-0.0,0.02,-1.01,-1.4,-1.77,0.0,-11.25,47.41,-55.66,22592.0,-0.0,0.01,-1.01,-1.46,-1.65,-0.24,-12.0,48.16,-54.31,1822,1602848271.746043,1234,0.028941882967546073,-9.044505609266997,2.471270589635589,0.03270448116288871,1.5334176507469919,2.1179441381657744,0.7787743320224089,1.4883502564914255,2.04738531433139,1821,1602848271.746043,4321,0.08184041827917099,1.9754685163497925,2.2001726627349854,3.918023109436035,4.283944129943848,5.121363162994385
,,133751.778481,2.865817070007324,0.0,0.0,0.0,0.0,0.0,0.0,0.0,0.0,0.0,0.0,0.0,22602.0,-0.01,0.0,-1.0,-1.22,-1.71,-0.24,-11.4,45.76,-53.41,22612.0,-0.01,0.02,-1.0,-1.4,-1.71,-0.24,-10.95,47.41,-54.91,1824,1602848271.765548,1234,0.4642590589767771,-9.266808446208506,2.2102817980131886,0.9337280273650216,1.0000552148619204,2.820046638569443,0.4418519830927694,1.515465376662715,2.0807387395658488,1823,1602848271.765548,4321,0.15674196183681488,1.0852587223052979,2.949645757675171,3.4460463523864746,4.901499271392822,5.837290287017822
,,133751.851924,2.939234495162964,0.0,0.0,0.0,0.0,0.0,0.0,0.0,0.0,0.0,0.0,0.0,22676.0,-0.0,0.0,-1.0,-1.4,-1.71,-0.24,-10.95,47.71,-54.31,22686.0,-0.0,0.0,-1.01,-1.34,-1.77,-0.24,-10.35,47.86,-54.76,1832,1602848271.845579,1234,0.1547165439133117,-9.282945874559145,2.177773429786389,0.5527999380743923,1.0426534301276793,2.7825100660341437,0.147811297771561,1.1422273557466547,2.819878713191361,1831,1602848271.845579,4321,0.2481159120798111,1.7335566282272339,2.1302874088287354,3.053048849105835,4.8503570556640625,5.9283857345581055
,,133751.872553,2.95988392829895,0.0,0.0,0.0,0.0,0.0,0.0,0.0,0.0,0.0,0.0,0.0,22696.0,-0.01,0.0,-1.02,-1.4,-1.65,-0.3,-11.4,46.81,-55.51,22706.0,-0.01,0.01,-1.02,-1.22,-1.71,-0.24,-11.25,46.36,-54.31,1833,1602848271.855657,1234,0.13078524409318226,-9.107241506302596,2.611711346837793,0.5077480306686254,1.3161270125627091,2.837894772671708,0.7699374870960626,1.2642203232806029,2.4709065325951833,1832,1602848271.855657,4321,0.6039248704910278,1.7635393142700195,2.5800082683563232,3.91341233253479,4.005503177642822,5.098020076751709
,,133751.893052,2.9803826808929443,0.0,0.0,0.0,0.0,0.0,0.0,0.0,0.0,0.0,0.0,0.0,22716.0,-0.0,0.01,-1.0,-1.34,-1.65,-0.18,-11.7,47.41,-54.91,22726.0,-0.01,0.0,-1.01,-1.4,-1.71,-0.18,-12.15,48.31,-54.76,1835,1602848271.876657,1234,0.16313923650108986,-9.053481790895457,2.0528180248818315,0.6446783280786461,1.3453571305049745,2.5188234426344147,0.8176750510285545,1.2769450261218402,2.440914044552689,1834,1602848271.876657,4321,0.6263604760169983,1.183140516281128,2.7479119300842285,3.318192958831787,4.065958023071289,5.701127052307129
,,133751.911618,2.99892258644104,0.0,0.0,0.0,0.0,0.0,0.0,0.0,0.0,0.0,0.0,0.0,22736.0,-0.01,0.01,-1.0,-1.34,-1.71,-0.18,-12.0,48.16,-55.96,22746.0,-0.01,0.01,-1.0,-1.46,-1.65,-0.18,-12.3,47.41,-54.91,1837,1602848271.902527,1234,0.3799870442134031,-9.066557014006053,2.5579884496058813,0.3215041611006487,1.1206559254662856,2.949929102470975,0.293413685645325,1.0165684953686522,2.9001818606184733,1836,1602848271.902527,4321,0.5141132473945618,1.3331443071365356,2.916506290435791,3.3719115257263184,4.52642822265625,5.554691791534424
,,133751.931262,3.018563747406006,0.0,0.0,0.0,0.0,0.0,0.0,0.0,0.0,0.0,0.0,0.0,22756.0,-0.01,0.01,-1.0,-1.34,-1.71,-0.3,-12.45,47.26,-55.81,22766.0,-0.0,0.01,-1.02,-1.4,-1.65,-0.24,-11.4,47.56,-55.51,1840,1602848271.925519,1234,0.7371078594446417,-9.098484578649227,2.2251078662726793,0.607213532984971,1.0473787234900747,2.6266372618621365,0.293065847661784,1.6421049913197958,2.135545424783962,1839,1602848271.925519,4321,0.24541431665420532,1.144605278968811,2.1459126472473145,3.651209831237793,4.884584903717041,5.808398246765137
,,133751.951977,3.0393130779266357,0.0,0.0,0.0,0.0,0.0,0.0,0.0,0.0,0.0,0.0,0.0,22776.0,-0.0,0.01,-1.01,-1.4,-1.65,-0.24,-9.15,46.66,-54.91,22785.0,-0.01,0.01,-1.0,-1.46,-1.77,-0.18,-11.85,46.51,-54.46,1841,1602848271.935669,1234,0.9241650364917957,-9.382735740221838,2.416041607314377,0.8570922906554133,1.3643014529314543,2.2245012641035906,0.46780398281203484,1.3613422647092888,2.463250978488013,1840,1602848271.935669,4321,0.2969185709953308,1.1680892705917358,2.7148990631103516,3.0539095401763916,4.079907417297363,5.10693359375
,,133751.971314,3.058629274368286,0.0,0.0,0.0,0.0,0.0,0.0,0.0,0.0,0.0,0.0,0.0,22795.0,-0.0,0.0,-1.01,-1.4,-1.71,-0.12,-10.8,48.31,-54.76,22805.0,0.0,0.01,-1.0,-1.4,-1.59,-0.24,-10.8,46.81,-54.76,1843,1602848271.95697,1234,0.5965522357175521,-9.373035862569296,2.5330592839594637,0.0960282543162666,1.9415164953867128,2.6749038390739863,0.37532319888320753,1.1633952002440249,2.742570124436164,1842,1602848271.95697,4321,0.2195437103509903,1.5062474012374878,2.4512956142425537,3.5267832279205322,4.685224533081055,5.884885311126709
,,133752.044629,3.131944179534912,0.0,0.0,0.0,0.0,0.0,0.0,0.0,0.0,0.0,0.0,0.0,22869.0,-0.0,0.01,-1.01,-1.59,-1.65,-0.3,-9.9,47.71,-53.86,22879.0,-0.01,0.01,-1.01,-1.4,-1.65,-0.12,-10.35,48.61,-54.46,1851,1602848272.35649,1234,0.1918439270735558,-9.586126841727078,2.551958548781039,0.19503241883343647,1.799567193703123,2.428083744621125,0.5709367671741326,1.3311357811837212,2.701642846187082,1850,1602848272.35649,4321,0.4740161895751953,1.8311394453048706,2.4420166015625,3.4739561080932617,4.425658226013184,5.801833629608154
,,133752.064397,3.151704788208008,0.0,0.0,0.0,0.0,0.0,0.0,0.0,0.0,0.0,0.0,0.0,22889.0,-0.01,0.01,-1.01,-1.34,-1.52,-0.37,-10.8,47.86,-56.86,22899.0,-0.01,0.01,-0.99,-1.34,-1.59,-0.18,-11.1,47.86,-56.86,1853,1602848272.55647,1234,0.626442382667866,-9.82010978092656,2.3941913504539305,0.9411113584029305,1.2891402526538889,2.988173364500226,0.40186096479095446,1.2663250526672405,2.611119578073894,1852,1602848272.55647,4321,0.7744664549827576,1.7483159303665161,2.8225812911987305,3.322850465774536,4.074811935424805,5.540402412414551
,,133752.084443,3.1717512607574463,0.0,0.0,0.0,0.0,0.0,0.0,0.0,0.0,0.0,0.0,0.0,22908.0,-0.01,0.01,-1.0,-1.46,-1.59,-0.24,-11.85,47.56,-55.06,22918.0,-0.01,0.01,-1.0,-1.46,-1.71,-0.24,-11.7,48.16,-55.36,1855,1602848272.75652,1234,0.3000033374632757,-9.670992525239194,2.9471996657992667,0.5727788722730719,1.7910818806672006,2.9220066761276184,0.8252481613456787,1.8473190585039991,2.226545478269718,1854,1602848272.75652,4321,0.5007587671279907,1.7030576467514038,2.977356195449829,3.5186984539031982,4.990414619445801,5.870065689086914
,,133752.104235,3.191542625427246,0.0,0.0,0.0,0.0,0.0,0.0,0.0,0.0,0.0,0.0,0.0,22928.0,-0.01,0.01,-1.01,-1.46,-1.65,-0.12,-10.65,47.11,-55.96,22938.0,0.0,0.01,-1.01,-1.4,-1.71,-0.18,-12.0,46.36,-54.91,1857,1602848272.95575,1234,0.03292924839054301,-9.47082917252891,2.4567300778305183,0.39225533259724765,1.1658162438071842,2.5122246928174388,0.34480415760176863,1.7170444136613998,2.3252082378053442,1856,1602848272.95575,4321,0.6901553869247437,1.812258005142212,2.4084692001342773,3.9828286170959473,4.4559197425842285,5.215550899505615
,,133752.123977,3.2112834453582764,0.0,0.0,0.0,0.0,0.0,0.0,0.0,0.0,0.0,0.0,0.0,22948.0,-0.0,0.0,-1.01,-1.34,-1.77,0.0,-12.75,48.16,-55.36,22958.0,0.0,0.0,-1.0,-1.34,-1.59,0.0,-11.85,45.76,-53.71,1859,1602848272.115572,1234,0.5505307479459669,-9.759024802859821,2.221155829487616,0.6014508744670827,1.0916395582889722,2.2814461509531125,0.15095982025520782,1.3016833724062247,2.5983943604372834,1858,1602848272.115572,4321,0.08949735760688782,1.7775102853775024,2.1010358333587646,3.741042375564575,4.753784656524658,5.200399398803711
,,133752.143881,3.2311882972717285,0.0,0.0,0.0,0.0,0.0,0.0,0.0,0.0,0.0,0.0,0.0,22968.0,0.0,0.0,-1.01,-1.46,-1.71,-0.18,-11.85,47.26,-54.16,22978.0,-0.01,0.01,-1.01,-1.4,-1.77,-0.24,-11.85,47.56,-55.81,1861,1602848272.135637,1234,0.3424573221618654,-9.088120273034239,2.4124179222002278,0.6763292919040714,1.11068000625162,2.4365452727444388,0.16252472676156293,1.862319085550816,2.809913176460383,1860,1602848272.135637,4321,0.6183908581733704,1.2329267263412476,2.109436273574829,3.8247599601745605,4.988509178161621,5.373522758483887
,,133752.163955,3.25126314163208,0.0,0.0,0.0,0.0,0.0,0.0,0.0,0.0,0.0,0.0,0.0,22988.0,-0.01,0.01,-1.02,-1.4,-1.71,-0.18,-12.3,46.06,-55.96,22998.0,0.0,0.01,-1.01,-1.4,-1.65,-0.24,-12.0,48.46,-54.61,1863,1602848272.155611,1234,0.36494107036686085,-9.540042763616707,2.2475179089929367,0.513672444425462,1.9091140689908834,2.4951619767196225,0.2153134240101232,1.0993835795313667,2.902252675856066,1862,1602848272.155611,4321,0.7911491990089417,1.5000075101852417,2.8863346576690674,3.7909116744995117,4.281836986541748,5.751993656158447
,,133752.30256,3.3898873329162598,0.0,0.0,0.0,0.0,0.0,0.0,0.0,0.0,0.0,0.0,0.0,23062.0,-1.64,-4.4,15.11,748.78,-312.32,1636.77,-9.6,47.11,-54.91,23136.0,-0.0,0.01,-1.02,-1.34,-1.71,0.0,-11.25,47.11,-56.26,1876,1602848272.285593,1234,0.15616996728662558,-9.432168381203466,2.125370736525566,0.7439112038969217,1.1486567922161033,2.5101370014095625,0.4495009830698694,1.4473265608559278,2.3862698166083494,1875,1602848272.285593,4321,0.5620670914649963,1.8704369068145752,2.259446859359741,3.4844374656677246,4.4046311378479,5.638608932495117
,,133752.32278,3.410097599029541,0.0,0.0,0.0,0.0,0.0,0.0,0.0,0.0,0.0,0.0,0.0,23145.0,0.0,0.01,-1.01,-1.46,-1.59,-0.24,-11.85,46.21,-55.51,23156.0,-0.01,0.0,-1.0,-1.4,-1.65,-0.18,-10.8,47.86,-55.51,1879,1602848272.315706,1234,0.9495388318249002,-9.82867605127162,2.9185783624749924,0.436230825216848,1.849410860513086,2.9938145375739893,0.4119063177951301,1.34830364136915,2.3427427685059836,1877,1602848272.305625,4321,0.5652199387550354,1.0647951364517212,2.8594179153442383,3.1352474689483643,4.088345527648926,5.817845821380615
,,133752.34287,3.4301838874816895,0.0,0.0,0.0,0.0,0.0,0.0,0.0,0.0,0.0,0.0,0.0,23165.0,-0.0,0.0,-1.0,-1.46,-1.71,-0.18,-11.7,47.11,-55.96,23176.0,-0.01,0.01,-1.0,-1.4,-1.65,-0.24,-10.05,47.56,-53.71,1881,1602848272.335642,1234,0.11285374128587133,-9.05802552490266,2.188828420346246,0.06341350566658033,1.8645688063882315,2.3899240236431205,0.7734263417580568,1.1727349683076314,2.4409138198980367,1880,1602848272.335642,4321,0.9196550846099854,1.1116615533828735,2.552274227142334,3.7469522953033447,4.728710174560547,5.04265022277832
,,133752.362727,3.4500653743743896,0.0,0.0,0.0,0.0,0.0,0.0,0.0,0.0,0.0,0.0,0.0,23185.0,-0.01,0.01,-1.01,-1.4,-1.65,-0.3,-12.75,47.11,-54.91,23196.0,0.0,0.0,-1.0,-1.28,-1.65,-0.18,-11.4,46.21,-54.76,1882,1602848272.345605,1234,0.6273327211096132,-9.6901508406301,2.5894253606098316,0.5165213112507354,1.3820650315857894,2.3563290209169416,0.014634231873266068,1.6411030224338847,2.239518350884998,1881,1602848272.345605,4321,0.8313808441162109,1.8085097074508667,2.2354602813720703,3.1511993408203125,4.552971839904785,5.973291873931885
,,133752.382864,3.4702019691467285,0.0,0.0,0.0,0.0,0.0,0.0,0.0,0.0,0.0,0.0,0.0,23206.0,-0.01,0.01,-1.01,-1.4,-1.71,-0.18,-11.85,47.26,-55.51,23216.0,-0.01,0.01,-1.02,-1.34,-1.59,-0.37,-11.7,47.41,-54.31,1884,1602848272.365635,1234,0.87496063159452,-9.363778083672548,2.6076436362727113,0.7850056828475327,1.3174623776068832,2.866365339024855,0.1264486988594169,1.9298090497377387,2.813150302552132,1883,1602848272.365635,4321,0.5934493541717529,1.9923630952835083,2.592362403869629,3.7346091270446777,4.758126735687256,5.734143257141113
,,133752.401626,3.488933563232422,0.0,0.0,0.0,0.0,0.0,0.0,0.0,0.0,0.0,0.0,0.0,23226.0,-0.0,0.01,-1.02,-1.52,-1.59,-0.12,-10.35,47.56,-54.46,23236.0,0.0,0.01,-1.01,-1.46,-1.65,-0.18,-11.85,47.26,-55.51,1886,1602848272.385813,1234,0.14422899140499912,-9.92155386849572,2.5747613856842815,0.8005192042079896,1.0014194411180455,2.7841126364653515,0.31677865295690544,1.1345078708983536,2.9006783176654634,1885,1602848272.385813,4321,0.6325657963752747,1.621021032333374,2.344933032989502,3.927476406097412,4.7941131591796875,5.616333961486816
,,133752.421388,3.5086841583251953,0.0,0.0,0.0,0.0,0.0,0.0,0.0,0.0,0.0,0.0,0.0,23246.0,-0.0,0.01,-1.01,-1.34,-1.65,-0.18,-11.25,47.11,-54.31,23255.0,0.0,0.02,-1.01,-1.34,-1.59,-0.12,-10.8,47.86,-55.51,1889,1602848272.415549,1234,0.9214005252466657,-9.861253041137637,2.309826931644439,0.5494850680277342,1.029351893145677,2.2114475984802704,0.657574677890483,1.0582596676924885,2.4278484850840334,1888,1602848272.415549,4321,0.8793675899505615,1.5809111595153809,2.1314640045166016,3.065798044204712,4.870768070220947,5.6847076416015625
,,133752.494301,3.581615924835205,0.0,0.0,0.0,0.0,0.0,0.0,0.0,0.0,0.0,0.0,0.0,23318.0,-0.01,0.0,-1.01,-1.46,-1.71,-0.18,-10.8,45.76,-54.76,23328.0,0.0,0.01,-1.01,-1.34,-1.65,-0.24,-11.4,47.56,-54.46,1896,1602848272.485569,1234,0.9076455953030163,-9.85474997266468,2.9967365931080825,0.4782624831853911,1.501703174938783,2.355275403232576,0.45187549001107885,1.4503193128474254,2.109476916120614,1895,1602848272.485569,4321,0.4893472492694855,1.415880799293518,2.0102224349975586,3.2469778060913086,4.530219554901123,5.121761798858643
,,133752.512972,3.600280284881592,0.0,0.0,0.0,0.0,0.0,0.0,0.0,0.0,0.0,0.0,0.0,23337.0,0.0,0.02,-1.02,-1.4,-1.71,-0.12,-10.8,47.86,-55.51,23347.0,-0.0,0.0,-1.01,-1.4,-1.71,-0.3,-11.7,46.66,-54.61,1898,1602848272.505557,1234,0.9117073618848522,-9.53733356941731,2.2952736378704195,0.5351881394932183,1.0794578949357638,2.7944292972886107,0.4692085927230456,1.7303012106391855,2.5252007554596054,1897,1602848272.505557,4321,0.43232738971710205,1.8152611255645752,2.275329828262329,3.64717960357666,4.905454635620117,5.966073989868164
,,133752.532273,3.6195876598358154,0.0,0.0,0.0,0.0,0.0,0.0,0.0,0.0,0.0,0.0,0.0,23356.0,0.0,0.01,-1.01,-1.46,-1.65,-0.12,-10.95,47.11,-54.91,23366.0,-0.01,0.01,-1.01,-1.34,-1.77,-0.18,-11.1,46.81,-54.46,1900,1602848272.525578,1234,0.5498725536407785,-9.95809680732087,2.156029981631344,0.4703204047551265,1.6568949542613147,2.1750137232625764,0.5062049173820343,1.500949353077078,2.480923692873018,1899,1602848272.525578,4321,0.47290411591529846,1.7119245529174805,2.929783344268799,3.877815008163452,4.425098419189453,5.282790184020996
,,133752.550485,3.6377925872802734,0.0,0.0,0.0,0.0,0.0,0.0,0.0,0.0,0.0,0.0,0.0,23375.0,-0.01,0.0,-1.0,-1.46,-1.71,-0.24,-11.25,46.66,-54.61,23384.0,0.01,0.0,-1.0,-1.34,-1.71,-0.18,-11.25,46.66,-54.61,1901,1602848272.535605,1234,0.06731812625469646,-9.530887564836734,2.81206223957165,0.03868933062946389,1.9593775472903618,2.1497601673148337,0.8845873955123906,1.1692553770422656,2.2276384893806376,1900,1602848272.535605,4321,0.7139067649841309,1.2348668575286865,2.0013060569763184,3.780226469039917,4.036036491394043,5.484554767608643
,,133752.569443,3.656752109527588,0.0,0.0,0.0,0.0,0.0,0.0,0.0,0.0,0.0,0.0,0.0,23394.0,-0.0,0.01,-1.01,-1.34,-1.71,-0.12,-12.15,46.21,-55.81,23403.0,-0.0,0.01,-1.01,-1.4,-1.77,-0.12,-10.65,47.11,-54.61,1903,1602848272.555598,1234,0.7785958020685553,-9.116012482856497,2.25105331434116,0.7731058453023236,1.156718648112189,2.150832490680866,0.7831043058571223,1.70307277237176,2.700620856113835,1902,1602848272.555598,4321,0.7604036927223206,1.9776811599731445,2.624856948852539,3.206838369369507,4.074215888977051,5.115667343139648
,,133752.588247,3.6755552291870117,0.0,0.0,0.0,0.0,0.0,0.0,0.0,0.0,0.0,0.0,0.0,23413.0,-0.0,0.01,-1.01,-1.34,-1.71,-0.24,-10.8,47.86,-54.16,23422.0,-0.0,0.0,-1.01,-1.52,-1.65,-0.37,-11.25,48.16,-53.86,1905,1602848272.575608,1234,0.6802883367888425,-9.778114778612535,2.592664531834595,0.6170023704296927,1.9802592987341323,2.1655538509884087,0.48008342462084075,1.2028923455334941,2.208829936480321,1904,1602848272.575608,4321,0.2746022641658783,1.449726939201355,2.499746561050415,3.264042615890503,4.033148288726807,5.589481830596924
,,133752.607586,3.6949148178100586,0.0,0.0,0.0,0.0,0.0,0.0,0.0,0.0,0.0,0.0,0.0,23432.0,0.0,0.01,-1.0,-1.46,-1.77,-0.24,-12.45,46.21,-53.71,23441.0,-0.01,0.01,-1.0,-1.4,-1.71,0.0,-11.1,45.76,-54.76,1907,1602848272.595641,1234,0.0023467624530738584,-9.70999548357477,2.4579440079520207,0.3528607874896814,1.4102116319890303,2.5136907337210785,0.5945286373150886,1.9609655941172732,2.8926803889067303,1906,1602848272.595641,4321,0.5393829345703125,1.5327471494674683,2.551547050476074,3.9897406101226807,4.6240715980529785,5.381335735321045
,,133752.681191,3.768517255783081,0.0,0.0,0.0,0.0,0.0,0.0,0.0,0.0,0.0,0.0,0.0,23505.0,-0.01,0.01,-0.99,-1.22,-1.77,-0.12,-11.1,46.81,-54.76,23515.0,0.0,0.01,-1.01,-1.28,-1.71,-0.24,-10.2,48.46,-55.96,1914,1602848272.665558,1234,0.1778150308780836,-9.435151993389473,2.963497592640302,0.30584022818346546,1.6689971940416721,2.5166972867881934,0.3852205139542021,1.1978930972863193,2.352145303884139,1913,1602848272.665558,4321,0.0025935748126357794,1.9599779844284058,2.498281240463257,3.415254592895508,4.169805526733398,5.499844074249268
,,133752.700355,3.78768253326416,0.0,0.0,0.0,0.0,0.0,0.0,0.0,0.0,0.0,0.0,0.0,23524.0,-0.0,0.02,-1.02,-1.28,-1.89,-0.18,-10.2,48.46,-55.96,23534.0,-0.01,0.01,-1.02,-1.4,-1.71,-0.18,-12.0,48.76,-53.56,1916,1602848272.685604,1234,0.8885583002948457,-9.274571713036794,2.9041070471369026,0.27112600068615367,1.482581041808427,2.990707873768077,0.7700455093423998,1.2259191450134324,2.185194077989469,1915,1602848272.685604,4321,0.38568615913391113,1.669790506362915,2.7897636890411377,3.224309206008911,4.193093776702881,5.604177474975586
,,133752.719325,3.8066420555114746,0.0,0.0,0.0,0.0,0.0,0.0,0.0,0.0,0.0,0.0,0.0,23543.0,-0.0,0.01,-1.0,-1.34,-1.71,-0.24,-12.15,46.81,-54.46,23552.0,-0.01,0.0,-1.01,-1.16,-1.59,-0.37,-11.7,47.11,-55.36,1918,1602848272.705658,1234,0.06502431072015646,-9.088542594174067,2.3215162456085503,0.005832253719997071,1.8370286874898478,2.875683346756452,0.5184417615449032,1.7237300796734623,2.912838737967972,1917,1602848272.705658,4321,0.6655837297439575,1.7107319831848145,2.671252489089966,3.53967547416687,4.405013561248779,5.611478805541992
,,133752.737996,3.825326681137085,0.0,0.0,0.0,0.0,0.0,0.0,0.0,0.0,0.0,0.0,0.0,23562.0,-0.01,0.01,-1.0,-1.52,-1.71,-0.12,-12.45,46.51,-56.11,23571.0,0.0,0.01,-1.0,-1.34,-1.71,-0.37,-12.15,47.56,-55.06,1920,1602848272.725551,1234,0.5822168790141319,-9.232172546105947,2.06997870098334,0.18794379491437418,1.560182813687853,2.4127043039148544,0.26939646405091755,1.7607633101288438,2.9426365810132418,1919,1602848272.725551,4321,0.9305097460746765,1.809624433517456,2.9465365409851074,3.044567346572876,4.219093322753906,5.512008190155029
,,133752.756908,3.844236135482788,0.0,0.0,0.0,0.0,0.0,0.0,0.0,0.0,0.0,0.0,0.0,23581.0,-0.01,0.01,-1.01,-1.4,-1.83,-0.18,-12.3,47.71,-55.36,23590.0,-0.01,0.0,-1.0,-1.4,-1.59,-0.18,-12.3,46.36,-54.31,1921,1602848272.735665,1234,0.6934542497720108,-9.605287126716473,2.7573724037918566,0.8386576970066116,1.145268976803357,2.3732490005054654,0.5243441021446643,1.6987765757403228,2.7492866363735824,1920,1602848272.735665,4321,0.9226881265640259,1.6680148839950562,2.050407648086548,3.572380304336548,4.951696872711182,5.854714393615723
,,133752.775954,3.863278388977051,0.0,0.0,0.0,0.0,0.0,0.0,0.0,0.0,0.0,0.0,0.0,23599.0,-0.0,0.01,-1.01,-1.4,-1.65,-0.24,-11.25,46.66,-54.91,23609.0,0.0,0.01,-1.0,-1.34,-1.71,-0.24,-11.1,47.86,-54.76,1923,1602848272.75551,1234,0.624354147484967,-9.192717655432707,2.920735093247873,0.2620947917189568,1.319045643823383,2.962619244147607,0.06158044722101608,1.2172649028284288,2.8408349026575883,1922,1602848272.75551,4321,0.13484372198581696,1.0020208358764648,2.2261643409729004,3.474642276763916,4.828404426574707,5.014370918273926
,,133752.793944,3.8812506198883057,0.0,0.0,0.0,0.0,0.0,0.0,0.0,0.0,0.0,0.0,0.0,23618.0,0.0,0.01,-1.0,-1.46,-1.59,0.0,-10.95,47.41,-54.91,23628.0,0.0,0.01,-1.0,-1.34,-1.71,-0.18,-13.35,48.46,-54.61,1926,1602848272.785573,1234,0.34448807601442444,-9.285572807784632,2.8185488025111196,0.4191829774360101,1.018673615093694,2.4449504528322628,0.01869510286033449,1.3036074951011025,2.103345424940154,1925,1602848272.785573,4321,0.18201254308223724,1.8230302333831787,2.4137003421783447,3.52350115776062,4.366963863372803,5.950646877288818
,,133752.866715,3.954023599624634,0.0,0.0,0.0,0.0,0.0,0.0,0.0,0.0,0.0,0.0,0.0,23691.0,0.0,0.01,-1.0,-1.46,-1.65,-0.18,-10.65,48.46,-54.91,23700.0,0.0,0.02,-1.01,-1.34,-1.77,-0.18,-10.2,47.11,-53.86,1933,1602848272.855553,1234,0.7638404703469153,-9.484079529779232,2.2363780545983163,0.6947732989322905,1.4312727697987913,2.9279066983783357,0.8398004229888755,1.6758809704982118,2.003513328778584,1932,1602848272.855553,4321,0.8287158608436584,1.1723368167877197,2.4021897315979004,3.0338642597198486,4.827664852142334,5.208474159240723
,,133752.886482,3.973820924758911,0.0,0.0,0.0,0.0,0.0,0.0,0.0,0.0,0.0,0.0,0.0,23710.0,-0.01,0.01,-1.01,-1.28,-1.83,-0.3,-10.05,47.26,-54.46,23719.0,-0.01,0.01,-1.0,-1.4,-1.71,0.0,-11.25,47.41,-53.86,1935,1602848272.875551,1234,0.011772173412546882,-9.169560713016622,2.490494533891891,0.9375909685803004,1.7706775759561,2.783188788166872,0.8312801289926485,1.7733972562355618,2.675082397515422,1934,1602848272.875551,4321,0.814104437828064,1.695360779762268,2.1724648475646973,3.460052013397217,4.4741668701171875,5.139125823974609
,,133752.904833,3.992159605026245,0.0,0.0,0.0,0.0,0.0,0.0,0.0,0.0,0.0,0.0,0.0,23729.0,0.0,-0.0,-1.01,-1.28,-1.71,-0.24,-13.05,48.16,-54.91,23738.0,-0.0,0.01,-1.02,-1.34,-1.65,-0.3,-12.15,48.61,-55.06,1936,1602848272.88564,1234,0.19968660070349498,-9.883534004242838,2.2263075614940817,0.041947318452157156,1.1499345894158506,2.188762251487234,0.18761253429725877,1.3302022928825403,2.8627873494894924,1935,1602848272.88564,4321,0.8709477186203003,1.41187584400177,2.10711932182312,3.4722113609313965,4.909054756164551,5.821201801300049
,,133752.923244,4.010559797286987,0.0,0.0,0.0,0.0,0.0,0.0,0.0,0.0,0.0,0.0,0.0,23747.0,-0.01,0.0,-1.0,-1.28,-1.71,-0.24,-11.85,45.46,-54.46,23757.0,-0.0,0.01,-1.01,-1.4,-1.65,-0.24,-12.3,46.66,-54.91,1938,1602848272.90701,1234,0.20141332465943906,-9.65210655154299,2.245848518334035,0.7286785407803967,1.975375752202079,2.7301798580659975,0.2755573972346417,1.0077224674624023,2.367121710708669,1937,1602848272.90701,4321,0.6407184600830078,1.621979832649231,2.1300244331359863,3.4842591285705566,4.418238162994385,5.120555400848389
,,133752.94186,4.0291666984558105,0.0,0.0,0.0,0.0,0.0,0.0,0.0,0.0,0.0,0.0,0.0,23766.0,-0.01,0.0,-1.0,-1.4,-1.59,-0.24,-10.8,47.86,-54.16,23776.0,-0.01,0.01,-1.02,-1.52,-1.65,-0.37,-9.9,49.21,-54.61,1941,1602848272.935668,1234,0.5083391812129434,-9.986478929924397,2.2973823826834736,0.004505748108023289,1.7423117701948891,2.395174818386832,0.5804424946054612,1.9615635716756494,2.022198583962098,1940,1602848272.935668,4321,0.08501973748207092,1.246589183807373,2.7377898693084717,3.958760976791382,4.805149078369141,5.856807231903076
,,133752.961022,4.048332929611206,0.0,0.0,0.0,0.0,0.0,0.0,0.0,0.0,0.0,0.0,0.0,23785.0,-0.01,0.0,-1.0,-1.28,-1.65,-0.12,-10.95,45.61,-54.91,23794.0,-0.01,0.02,-1.01,-1.46,-1.52,-0.24,-11.85,47.56,-55.06,1943,1602848272.955648,1234,0.20033825441648434,-9.000655003024232,2.5405804632141185,0.968411682732046,1.7742379122856584,2.4263267739397585,0.34560134138324505,1.6348649258165207,2.431754474397568,1942,1602848272.955648,4321,0.9800347089767456,1.6488416194915771,2.811397075653076,3.0113980770111084,4.583164691925049,5.8538079261779785
,,133752.980225,4.067552089691162,0.0,0.0,0.0,0.0,0.0,0.0,0.0,0.0,0.0,0.0,0.0,23804.0,-0.0,0.01,-1.0,-1.52,-1.65,-0.18,-11.85,47.56,-55.06,23813.0,-0.0,0.01,-1.01,-1.65,-1.71,-0.18,-11.85,48.61,-54.16,1944,1602848272.965574,1234,0.8805971749576486,-9.695613328855051,2.919168160871161,0.9034498071060824,1.172853286093832,2.0309225390498966,0.21092569301417097,1.7689276511465444,2.974138795348316,1943,1602848272.965574,4321,0.8959434628486633,1.8446892499923706,2.1602120399475098,3.9421749114990234,4.18960428237915,5.603236198425293
,,133753.054843,4.142154693603516,0.0,0.0,0.0,0.0,0.0,0.0,0.0,0.0,0.0,0.0,0.0,23878.0,-0.0,0.01,-1.0,-1.4,-1.59,-0.24,-10.05,47.26,-54.46,23888.0,0.01,0.0,-1.01,-1.52,-1.65,-0.3,-9.3,48.61,-54.46,1952,1602848273.45581,1234,0.07565946697112946,-9.34123072289328,2.5107906348638567,0.22208010697586178,1.9983939801209603,2.169118675189639,0.03374117785322306,1.587782962862115,2.6905139661807413,1951,1602848273.45581,4321,0.5606744885444641,1.7644925117492676,2.4527459144592285,3.150801658630371,4.417605876922607,5.376317977905273
,,133753.074651,4.161954402923584,0.0,0.0,0.0,0.0,0.0,0.0,0.0,0.0,0.0,0.0,0.0,23898.0,0.01,0.01,-0.99,-1.34,-1.4,-0.3,-12.0,48.46,-55.36,23908.0,-0.0,0.01,-1.0,-1.4,-1.65,-0.18,-11.4,46.21,-54.76,1954,1602848273.6555,1234,0.04840881862584989,-9.22389595081755,2.8869263189898193,0.5654317763759416,1.9649053544666781,2.666162124487428,0.6748930820495278,1.040332095224303,2.289017915713409,1953,1602848273.6555,4321,0.2973087430000305,1.5215548276901245,2.43961501121521,3.0107710361480713,4.974945545196533,5.687102794647217
,,133753.094416,4.181720495223999,0.0,0.0,0.0,0.0,0.0,0.0,0.0,0.0,0.0,0.0,0.0,23918.0,0.0,0.01,-1.0,-1.46,-1.71,-0.24,-11.85,48.31,-56.11,23928.0,0.0,-0.0,-1.02,-1.34,-1.77,-0.12,-11.25,47.71,-55.96,1956,1602848273.8554,1234,0.47708644907162845,-9.012059426861443,2.822168513362772,0.8201253323182307,1.9082006877161322,2.4674114624269534,0.4549379968121632,1.0046787584715045,2.728189683899288,1955,1602848273.8554,4321,0.10227806866168976,1.6059728860855103,2.5082035064697266,3.451512575149536,4.1259965896606445,5.037905216217041
,,133753.114354,4.20166802406311,0.0,0.0,0.0,0.0,0.0,0.0,0.0,0.0,0.0,0.0,0.0,23938.0,-0.0,0.01,-1.01,-1.52,-1.65,-0.12,-11.7,46.66,-56.26,23948.0,-0.0,0.01,-1.01,-1.4,-1.71,-0.12,-11.4,47.26,-54.46,1958,1602848273.105567,1234,0.4719644835170498,-9.538120741320757,2.2094780975209707,0.5762336600940067,1.212668312504407,2.546239745556372,0.06828875720898453,1.2859411521159898,2.8767185315629806,1957,1602848273.105567,4321,0.729486882686615,1.6708831787109375,2.4274895191192627,3.997509717941284,4.0863752365112305,5.735866546630859
,,133753.134269,4.221574783325195,0.0,0.0,0.0,0.0,0.0,0.0,0.0,0.0,0.0,0.0,0.0,23958.0,-0.0,0.01,-1.02,-1.46,-1.83,-0.24,-10.65,46.66,-55.36,23968.0,-0.01,0.01,-1.01,-1.4,-1.71,-0.12,-11.1,47.26,-54.16,1960,1602848273.125531,1234,0.7811108664013788,-9.933368209470544,2.219683747801028,0.25540868915069925,1.5480044762756946,2.5749353027537802,0.45720844695614626,1.1425912112647056,2.149277378247029,1959,1602848273.125531,4321,0.3462679982185364,1.372066617012024,2.4984655380249023,3.078550338745117,4.226068496704102,5.266303062438965
,,133753.154302,4.241605758666992,0.0,0.0,0.0,0.0,0.0,0.0,0.0,0.0,0.0,0.0,0.0,23978.0,-0.02,0.01,-1.01,-1.34,-1.71,-0.12,-11.1,47.86,-55.06,23988.0,-0.01,0.01,-1.01,-1.34,-1.65,-0.3,-10.35,48.61,-54.76,1962,1602848273.145562,1234,0.4415831714575452,-9.009120961199876,2.243957464093483,0.7796369054855563,1.3218987373027065,2.9398999236607395,0.951877621773697,1.5726715549514636,2.069842893360597,1961,1602848273.145562,4321,0.7434662580490112,1.5173851251602173,2.271789073944092,3.4556007385253906,4.900279521942139,5.693115711212158
,,133753.174223,4.2615275382995605,0.0,0.0,0.0,0.0,0.0,0.0,0.0,0.0,0.0,0.0,0.0,23998.0,-0.01,-0.0,-1.02,-1.46,-1.65,-0.24,-11.25,47.11,-56.26,24008.0,0.01,0.0,-1.02,-1.52,-1.65,-0.18,-11.1,48.61,-55.06,1964,1602848273.165572,1234,0.3191479280638182,-9.346062290976958,2.6458876356916967,0.5754217484758337,1.8053297022173345,2.5757413853224547,0.7284253096473591,1.557926942202195,2.432440183786965,1963,1602848273.165572,4321,0.12537646293640137,1.0618747472763062,2.379849433898926,3.634084701538086,4.535733699798584,5.99017333984375
,,133753.243627,4.330930233001709,0.0,0.0,0.0,0.0,0.0,0.0,0.0,0.0,0.0,0.0,0.0,24067.0,-0.01,0.01,-1.01,-1.34,-1.71,-0.18,-10.95,47.11,-54.61,24077.0,-0.01,0.01,-1.0,-1.46,-1.71,-0.12,-11.4,48.61,-55.81,1971,1602848273.235662,1234,0.759320840279374,-9.356017727885733,2.691654274918733,0.45264457365250554,1.7424330930359258,2.626436591103175,0.3268900936659149,1.490899259913854,2.1150494398235793,1970,1602848273.235662,4321,0.379290908575058,1.3863641023635864,2.760140895843506,3.54726243019104,4.063678741455078,5.620842456817627
,,133753.263674,4.3509840965271,0.0,0.0,0.0,0.0,0.0,0.0,0.0,0.0,0.0,0.0,0.0,24087.0,-0.0,0.01,-0.98,-1.4,-1.65,-0.18,-11.1,47.56,-56.11,24097.0,0.0,0.01,-1.0,-1.46,-1.77,-0.18,-10.05,47.56,-54.46,1973,1602848273.255581,1234,0.2547664042391561,-9.595404023330646,2.0294058066808356,0.8170133755376088,1.0360110677576566,2.161988957543267,0.04092371657930327,1.708236582655116,2.8672224614097557,1972,1602848273.255581,4321,0.4190899133682251,1.450067162513733,2.909799575805664,3.0863451957702637,4.295223712921143,5.0529890060424805
,,133753.283444,4.370752811431885,0.0,0.0,0.0,0.0,0.0,0.0,0.0,0.0,0.0,0.0,0.0,24107.0,0.01,0.01,-1.01,-1.4,-1.71,0.0,-10.95,46.66,-55.66,24117.0,-0.0,0.01,-1.01,-1.52,-1.83,-0.12,-10.05,47.56,-53.71,1975,1602848273.275596,1234,0.23552914375557,-9.13747218258117,2.6712928811660466,0.652229080090841,1.3262967217360688,2.732874102687453,0.713545523188622,1.3807201431603155,2.670585650243571,1974,1602848273.275596,4321,0.20611201226711273,1.1017656326293945,2.4570770263671875,3.3626551628112793,4.074703693389893,5.261958122253418
,,133753.303283,4.390591621398926,0.0,0.0,0.0,0.0,0.0,0.0,0.0,0.0,0.0,0.0,0.0,24127.0,-0.0,0.01,-1.0,-1.46,-1.89,-0.24,-11.85,47.26,-55.06,24137.0,0.01,0.0,-1.0,-1.34,-1.77,-0.37,-10.2,47.41,-55.36,1977,1602848273.295638,1234,0.9364092158137697,-9.503978734309262,2.849774267215647,0.2743655055149573,1.5471465733190244,2.621826139056772,0.5032282039421196,1.9246133054830112,2.3302966685611914,1976,1602848273.295638,4321,0.92958664894104,1.164742112159729,2.3809070587158203,3.0416553020477295,4.628505229949951,5.967191696166992
,,133753.323304,4.410611391067505,0.0,0.0,0.0,0.0,0.0,0.0,0.0,0.0,0.0,0.0,0.0,24147.0,-0.0,0.01,-1.01,-1.22,-1.65,-0.3,-11.4,46.51,-54.46,24157.0,-0.01,0.01,-1.02,-1.28,-1.71,-0.12,-11.4,46.81,-55.06,1979,1602848273.315614,1234,0.40184219994642667,-9.54789625995392,2.18455506871471,0.36880608374318324,1.7937266238666776,2.2567754705027627,0.4780005972099378,1.7059928233856763,2.194508029657295,1978,1602848273.315614,4321,0.27675899863243103,1.5658236742019653,2.433483600616455,3.774637222290039,4.656084060668945,5.618253707885742
,,133753.343333,4.430650234222412,0.0,0.0,0.0,0.0,0.0,0.0,0.0,0.0,0.0,0.0,0.0,24167.0,-0.0,0.01,-1.0,-1.28,-1.59,-0.18,-11.85,47.56,-53.71,24177.0,0.0,0.0,-1.0,-1.52,-1.71,-0.24,-11.25,48.76,-54.91,1981,1602848273.335642,1234,0.8921143309402586,-9.006189233592925,2.5722297576713604,0.20596936729687787,1.6120491560858334,2.099858297511028,0.524857233905802,1.8434570704450635,2.0538463900449564,1980,1602848273.335642,4321,0.43594324588775635,1.438857913017273,2.3654510974884033,3.395002841949463,4.537739276885986,5.142806529998779
,,133753.363075,4.450382232666016,0.0,0.0,0.0,0.0,0.0,0.0,0.0,0.0,0.0,0.0,0.0,24186.0,-0.02,0.02,-1.01,-1.46,-1.77,-0.18,-11.7,48.46,-54.91,24196.0,-0.01,0.01,-1.01,-1.4,-1.71,-0.12,-11.1,47.26,-55.51,1983,1602848273.355894,1234,0.007765735521045536,-9.325471627580466,2.3278978026963615,0.3936071420868743,1.0631979351627479,2.288751743176846,0.6135383283595018,1.6738054843461563,2.2741485375411084,1982,1602848273.355894,4321,0.7930030226707458,1.439870834350586,2.3411812782287598,3.502743721008301,4.266729354858398,5.83843469619751
,,133753.43937,4.526684045791626,0.0,0.0,0.0,0.0,0.0,0.0,0.0,0.0,0.0,0.0,0.0,24262.0,-0.01,0.01,-1.01,-1.46,-1.65,-0.12,-9.3,47.26,-53.41,24272.0,-0.0,0.01,-1.0,-1.28,-1.71,-0.12,-12.0,49.21,-52.51,1990,1602848273.425729,1234,0.5296319405543316,-9.110984271711562,2.1783485878578257,0.5306114372181632,1.4064832333339727,2.8882902921562508,0.47057747312334275,1.486487408971152,2.89709004013266,1989,1602848273.425729,4321,0.020885242149233818,1.9656567573547363,2.295116901397705,3.315396308898926,4.198433876037598,5.466034412384033
,,133753.459187,4.546514511108398,0.0,0.0,0.0,0.0,0.0,0.0,0.0,0.0,0.0,0.0,0.0,24282.0,-0.0,0.0,-1.0,-1.46,-1.59,-0.18,-11.85,47.86,-56.11,24292.0,-0.01,0.0,-1.02,-1.4,-1.52,-0.24,-10.95,47.71,-55.36,1992,1602848273.445538,1234,0.5820733951079886,-9.85981441258421,2.8218926661014514,0.8784247957029016,1.3333467095714513,2.5344891354898165,0.6941573810779365,1.4466049170534943,2.3154982015051377,1991,1602848273.445538,4321,0.7146034836769104,1.384982943534851,2.716240882873535,3.8605101108551025,4.4148783683776855,5.609890460968018
,,133753.478362,4.5656654834747314,0.0,0.0,0.0,0.0,0.0,0.0,0.0,0.0,0.0,0.0,0.0,24302.0,-0.01,0.0,-1.01,-1.34,-1.52,-0.12,-12.0,46.66,-55.36,24312.0,-0.0,0.0,-1.0,-1.46,-1.52,-0.24,-10.8,45.76,-54.46,1994,1602848273.465524,1234,0.6696124571969507,-9.358645579852961,2.4863748701200867,0.4526044762629843,1.6723306573155603,2.042389889144432,0.6216178528901031,1.7615680154720201,2.0246590065242134,1993,1602848273.465524,4321,0.3908219337463379,1.2806235551834106,2.9178223609924316,3.0081143379211426,4.2551751136779785,5.3521952629089355
,,133753.498337,4.585642099380493,0.0,0.0,0.0,0.0,0.0,0.0,0.0,0.0,0.0,0.0,0.0,24322.0,-0.0,0.01,-1.0,-1.46,-1.65,-0.24,-11.1,46.51,-54.76,24332.0,-0.0,0.0,-1.01,-1.46,-1.71,-0.18,-12.0,47.41,-53.86,1996,1602848273.485535,1234,0.6540330793936768,-9.536816240988223,2.1215558175780656,0.3681368110357287,1.0674310670779006,2.1747697674867883,0.7330544332857667,1.9741692782342497,2.2059567349459335,1995,1602848273.485535,4321,0.5444462299346924,1.6896132230758667,2.849015951156616,3.5952353477478027,4.22626256942749,5.368098258972168
,,133753.519037,4.606375455856323,0.0,0.0,0.0,0.0,0.0,0.0,0.0,0.0,0.0,0.0,0.0,24342.0,-0.0,0.01,-1.01,-1.34,-1.65,-0.18,-10.65,47.71,-53.56,24352.0,0.01,0.01,-1.0,-1.34,-1.65,0.0,-11.85,47.26,-55.51,1998,1602848273.505603,1234,0.6838927850320577,-9.050943174924935,2.576489381594697,0.9056126198948207,1.2414735541133772,2.334758298512308,0.7379701311331374,1.7232798599085704,2.0554267947539677,1997,1602848273.505603,4321,0.06424883753061295,1.6113941669464111,2.9019935131073,3.044133186340332,4.0710554122924805,5.213901042938232
,,133753.53863,4.625946044921875,0.0,0.0,0.0,0.0,0.0,0.0,0.0,0.0,0.0,0.0,0.0,24362.0,0.0,0.01,-1.0,-1.46,-1.77,-0.12,-11.4,46.81,-55.81,24372.0,-0.0,0.0,-1.01,-1.46,-1.71,-0.18,-12.45,47.26,-56.86,2000,1602848273.525706,1234,0.8312253254036941,-9.174828763587664,2.4210097934895196,0.49011014815283804,1.6806427191386712,2.571007049614055,0.9066410583328559,1.071271150072419,2.7305725660346187,1999,1602848273.525706,4321,0.23726269602775574,1.3009779453277588,2.773237943649292,3.418414831161499,4.614977836608887,5.263803482055664
,,133753.558046,4.645344257354736,0.0,0.0,0.0,0.0,0.0,0.0,0.0,0.0,0.0,0.0,0.0,24382.0,-0.0,0.01,-1.02,-1.34,-1.71,-0.12,-11.1,49.66,-55.81,24392.0,-0.0,0.01,-1.01,-1.28,-1.71,-0.24,-11.85,47.26,-54.46,2002,1602848273.545598,1234,0.6061186820129371,-9.368814033104988,2.520881645122895,0.5401337849536795,1.1445028558851793,2.5998065839877658,0.7333716755445658,1.488180354787008,2.1483009053802453,2001,1602848273.545598,4321,0.6741257905960083,1.0582276582717896,2.5779473781585693,3.089459180831909,4.110675811767578,5.81707239151001
,,133753.632577,4.719877481460571,0.0,0.0,0.0,0.0,0.0,0.0,0.0,0.0,0.0,0.0,0.0,24456.0,-0.01,0.01,-1.02,-1.34,-1.89,-0.18,-10.2,46.66,-54.61,24466.0,0.0,0.0,-1.0,-1.34,-1.77,-0.18,-11.25,47.41,-55.66,2010,1602848273.625523,1234,0.9294475437056511,-9.993157907953563,2.630145170526243,0.9759230248584517,1.7315740571855422,2.9150294020824763,0.2737582887893636,1.922229210736508,2.8171666512749427,2009,1602848273.625523,4321,0.04136928170919418,1.829967737197876,2.3206799030303955,3.17299485206604,4.8257880210876465,5.2682390213012695
,,133753.652347,4.7396464347839355,0.0,0.0,0.0,0.0,0.0,0.0,0.0,0.0,0.0,0.0,0.0,24476.0,-0.01,0.01,-1.01,-1.34,-1.71,-0.12,-11.1,47.86,-54.76,24486.0,-0.0,0.0,-1.02,-1.46,-1.65,-0.24,-9.75,48.31,-55.51,2012,1602848273.645686,1234,0.3567971732863743,-9.712610974719054,2.2653201400527108,0.13810479341604787,1.6654909959241047,2.7373433788617665,0.48814755318448233,1.3913026240259692,2.574219272281218,2011,1602848273.645686,4321,0.22548359632492065,1.932017207145691,2.365063190460205,3.239917278289795,4.95839262008667,5.461600303649902
,,133753.672358,4.759668827056885,0.0,0.0,0.0,0.0,0.0,0.0,0.0,0.0,0.0,0.0,0.0,24496.0,-0.01,0.01,-1.02,-1.4,-1.4,-0.24,-11.85,46.81,-55.51,24506.0,-0.01,0.01,-1.01,-1.4,-1.59,-0.24,-11.85,48.61,-54.16,2014,1602848273.665537,1234,0.21777370304245358,-9.780734502719309,2.164157264446227,0.4136887496872038,1.4799300340583725,2.686152265382496,0.6282479894899525,1.1616335866648853,2.231506590837843,2013,1602848273.665537,4321,0.27199307084083557,1.4630789756774902,2.9132800102233887,3.353909492492676,4.986425876617432,5.003464698791504
,,133753.692329,4.779628038406372,0.0,0.0,0.0,0.0,0.0,0.0,0.0,0.0,0.0,0.0,0.0,24516.0,-0.0,0.0,-1.01,-1.46,-1.52,-0.24,-12.0,46.36,-54.91,24526.0,-0.0,0.0,-1.01,-1.59,-1.46,-0.24,-11.4,46.21,-56.11,2016,1602848273.685584,1234,0.9233559160321057,-9.367118036684642,2.19321778383527,0.7300429294981929,1.504816038033741,2.2243716132484925,0.6117317908650882,1.4714035688157336,2.316956664005887,2015,1602848273.685584,4321,0.03711577132344246,1.6157279014587402,2.013094425201416,3.7055163383483887,4.32773494720459,5.032540321350098
,,133753.712549,4.799857139587402,0.0,0.0,0.0,0.0,0.0,0.0,0.0,0.0,0.0,0.0,0.0,24536.0,-0.0,0.01,-1.01,-1.34,-1.59,-0.18,-11.25,47.41,-55.36,24546.0,-0.01,0.0,-1.01,-1.4,-1.59,-0.12,-12.3,47.11,-54.61,2018,1602848273.70552,1234,0.5801275407721506,-9.40074705179613,2.948122074284515,0.2689551955029703,1.0730203302684065,2.7449543887074497,0.3739528026898793,1.0412124715301168,2.565454541613221,2017,1602848273.70552,4321,0.035954609513282776,1.1610147953033447,2.7832391262054443,3.623462200164795,4.251097202301025,5.5411376953125
,,133753.733167,4.820494651794434,0.0,0.0,0.0,0.0,0.0,0.0,0.0,0.0,0.0,0.0,0.0,24556.0,0.01,0.01,-1.01,-1.34,-1.59,-0.18,-10.35,46.21,-55.51,24566.0,-0.0,0.0,-1.0,-1.59,-1.65,-0.18,-11.25,48.46,-56.71,2019,1602848273.715581,1234,0.4119933415935676,-9.943544259540817,2.905552322475477,0.9057729193288687,1.0348937317885847,2.826521463564598,0.9218531304582438,1.7493399447791882,2.7144317964680114,2018,1602848273.715581,4321,0.453727126121521,1.7383153438568115,2.4988744258880615,3.1826610565185547,4.589740753173828,5.22031307220459
,,133753.752785,4.840113401412964,0.0,0.0,0.0,0.0,0.0,0.0,0.0,0.0,0.0,0.0,0.0,24575.0,0.0,0.01,-1.0,-1.4,-1.77,-0.18,-12.15,46.21,-55.06,24586.0,0.0,0.0,-1.01,-1.34,-1.71,0.0,-12.15,47.86,-55.81,2021,1602848273.735687,1234,0.6539378685707744,-9.791394444684942,2.646916211137326,0.8304081778156935,1.0881443326944698,2.860618853995079,0.6553107255205951,1.2843353858218982,2.2533763928654715,2020,1602848273.735687,4321,0.7499467134475708,1.6741831302642822,2.4342691898345947,3.4817843437194824,4.373168468475342,5.340256214141846
,,133753.829241,4.916549921035767,0.0,0.0,0.0,0.0,0.0,0.0,0.0,0.0,0.0,0.0,0.0,24651.0,5.19,12.23,-9.81,-1267.01,1489.09,-1795.24,-10.95,47.41,-53.26,24662.0,-6.15,11.39,-9.88,1650.37,-1498.6,-296.59,-10.2,48.76,-54.31,2029,1602848273.815606,1234,0.7695238950471814,-9.642274936778794,2.2140378133242242,0.36886505580457774,1.1008659720630671,2.931656168970915,0.9018588174036519,1.027890758303355,2.5992706624678465,2028,1602848273.815606,4321,0.11593390256166458,1.784233570098877,2.433915615081787,3.4987850189208984,4.619999885559082,5.087177753448486
,,133753.911592,4.998903751373291,0.0,0.0,0.0,0.0,0.0,0.0,0.0,0.0,0.0,0.0,0.0,24735.0,-0.0,0.01,-1.02,-1.34,-1.71,-0.12,-11.1,48.31,-54.76,24745.0,-0.01,0.0,-1.02,-1.34,-1.59,-0.12,-11.7,48.16,-54.91,2038,1602848273.90557,1234,0.9826371132557965,-9.652924610863492,2.6307577598311687,0.15660599595597424,1.1704788162660928,2.148054829227938,0.07403262583066506,1.0683113976933267,2.849222841983014,2037,1602848273.90557,4321,0.5668346881866455,1.3664969205856323,2.1800384521484375,3.4992237091064453,4.913748264312744,5.208333492279053
,,133753.931443,5.018760681152344,0.0,0.0,0.0,0.0,0.0,0.0,0.0,0.0,0.0,0.0,0.0,24755.0,-0.01,0.01,-1.01,-1.34,-1.65,-0.12,-11.4,47.56,-55.06,24765.0,-0.01,0.01,-1.0,-1.34,-1.71,-0.3,-11.1,47.86,-55.81,2040,1602848273.925557,1234,0.8850761590776595,-9.259571059771643,2.922795427966932,0.487760393521534,1.1833981529659843,2.97248545234943,0.5024651933457825,1.9851772342352803,2.1927363618003666,2039,1602848273.925557,4321,0.8486600518226624,1.9317562580108643,2.7586262226104736,3.555671215057373,4.222084999084473,5.0743536949157715
,,133753.952235,5.039574861526489,0.0,0.0,0.0,0.0,0.0,0.0,0.0,0.0,0.0,0.0,0.0,24775.0,-0.01,0.01,-1.02,-1.28,-1.65,-0.18,-11.1,46.51,-53.71,24785.0,-0.0,0.01,-1.01,-1.46,-1.46,-0.24,-9.75,45.76,-55.51,2041,1602848273.935597,1234,0.3195988076091687,-9.966544403337032,2.7140362133399827,0.619784907541664,1.4785232889114206,2.161373249735602,0.6328964773904985,1.978370203040515,2.2393609946406405,2040,1602848273.935597,4321,0.8132203817367554,1.9306484460830688,2.703458070755005,3.4217793941497803,4.519555568695068,5.781631946563721
,,133753.9719,5.059226751327515,0.0,0.0,0.0,0.0,0.0,0.0,0.0,0.0,0.0,0.0,0.0,24795.0,-0.0,0.01,-1.02,-1.52,-1.52,-0.24,-12.15,46.81,-55.81,24805.0,-0.0,0.0,-0.99,-1.4,-1.46,0.0,-12.3,47.11,-55.36,2043,1602848273.956692,1234,0.4804627461845574,-9.995867220746154,2.04813228959997,0.7920336056646397,1.5130706658742346,2.1959872273208054,0.5906913144742061,1.587835345525712,2.5481282875637086,2042,1602848273.956692,4321,0.6832478642463684,1.3951833248138428,2.29063081741333,3.5150773525238037,4.410292148590088,5.820863723754883
,,133753.992004,5.07930326461792,0.0,0.0,0.0,0.0,0.0,0.0,0.0,0.0,0.0,0.0,0.0,24815.0,-0.01,0.02,-1.01,-1.46,-1.59,-0.18,-10.65,47.71,-55.36,24825.0,0.01,0.0,-1.0,-1.52,-1.59,0.0,-11.1,47.86,-54.46,2046,1602848273.985556,1234,0.9309095212114161,-9.575936519942758,2.492134998615912,0.6461971037520338,1.354393870476959,2.13919390882289,0.11608997380420139,1.9350074841763665,2.398618716333823,2045,1602848273.985556,4321,0.9536383152008057,1.0553655624389648,2.2077741622924805,3.351480484008789,4.705010414123535,5.444664478302002
,,133754.0122,5.099499464035034,0.0,0.0,0.0,0.0,0.0,0.0,0.0,0.0,0.0,0.0,0.0,24835.0,-0.01,0.01,-1.02,-1.4,-1.59,-0.24,-11.4,47.26,-54.46,24845.0,0.01,0.01,-1.01,-1.52,-1.52,-0.24,-11.85,46.51,-55.51,2048,1602848274.5508,1234,0.7054813179071554,-9.577461449891729,2.9881256999673296,0.37212852851564115,1.7423068018155845,2.6870278734744835,0.24495586646477552,1.0957794904077618,2.7866278262376416,2047,1602848274.5508,4321,0.9949403405189514,1.2583194971084595,2.5621204376220703,3.6919665336608887,4.467422008514404,5.401776313781738
,,133754.094984,5.182286977767944,0.0,0.0,0.0,0.0,0.0,0.0,0.0,0.0,0.0,0.0,0.0,24919.0,-0.0,0.01,-1.02,-1.46,-1.65,-0.18,-10.8,48.91,-55.06,24928.0,-0.0,0.01,-1.01,-1.4,-1.71,-0.18,-10.65,48.76,-54.61,2056,1602848274.85553,1234,0.8181778104037535,-9.185899020878724,2.90623395559338,0.910754889413324,1.2135005761983937,2.3141007081741782,0.9155353968366433,1.984698091025758,2.9645878361259026,2055,1602848274.85553,4321,0.973136305809021,1.6627665758132935,2.185709238052368,3.5462188720703125,4.534860610961914,5.7938971519470215
,,133754.113877,5.20117974281311,0.0,0.0,0.0,0.0,0.0,0.0,0.0,0.0,0.0,0.0,0.0,24937.0,0.01,0.01,-1.0,-1.4,-1.59,-0.12,-10.95,46.66,-54.91,24947.0,-0.01,0.01,-1.01,-1.46,-1.65,-0.3,-12.45,46.81,-54.46,2058,1602848274.105529,1234,0.23793797282847795,-9.023100014856862,2.9379684286730985,0.5646134978878858,1.4144991606262172,2.4656871694951885,0.381693283243809,1.7592686021469635,2.9827665810044772,2057,1602848274.105529,4321,0.9473639726638794,1.5670087337493896,2.5557870864868164,3.7325339317321777,4.905529022216797,5.961336612701416
,,133754.132632,5.2199366092681885,0.0,0.0,0.0,0.0,0.0,0.0,0.0,0.0,0.0,0.0,0.0,24956.0,-0.01,0.02,-1.01,-1.46,-1.71,-0.3,-11.4,46.51,-55.06,24966.0,-0.0,0.01,-1.01,-1.4,-1.65,-0.12,-9.9,46.06,-54.61,2060,1602848274.125532,1234,0.44138538946257333,-9.655850280770856,2.5067309118101724,0.481468209282808,1.7299518309502249,2.810629522665561,0.6863822752304183,1.441586198925047,2.595321578729052,2059,1602848274.125532,4321,0.7844030857086182,1.232517957687378,2.8722498416900635,3.3479573726654053,4.7792487144470215,5.241962432861328
,,133754.151387,5.23868989944458,0.0,0.0,0.0,0.0,0.0,0.0,0.0,0.0,0.0,0.0,0.0,24975.0,0.0,0.01,-1.0,-1.4,-1.77,-0.18,-12.15,48.91,-54.16,24985.0,-0.0,0.0,-1.0,-1.4,-1.77,-0.12,-11.1,48.31,-56.41,2062,1602848274.145529,1234,0.9322036209752848,-9.801144606825378,2.291717575271753,0.6870762817145946,1.4164128110852865,2.562828404437708,0.946257495934611,1.955503214243614,2.421654411429049,2061,1602848274.145529,4321,0.20034007728099823,1.1921093463897705,2.1437366008758545,3.088205337524414,4.748766899108887,5.895721435546875
,,133754.170442,5.257746696472168,0.0,0.0,0.0,0.0,0.0,0.0,0.0,0.0,0.0,0.0,0.0,24994.0,0.0,0.0,-1.0,-1.46,-1.83,-0.3,-10.95,47.41,-53.56,25003.0,0.0,0.01,-1.01,-1.46,-1.71,0.0,-10.95,47.41,-53.56,2064,1602848274.165554,1234,0.02653825260610665,-9.443047215446082,2.241414031054439,0.818634578829485,1.3206221391456532,2.4013918171018416,0.6845259087567219,1.7718224955406927,2.4577229193685115,2063,1602848274.165554,4321,0.6277917623519897,1.1307848691940308,2.45049786567688,3.8235058784484863,4.061069965362549,5.722113132476807
,,133754.189718,5.277045965194702,0.0,0.0,0.0,0.0,0.0,0.0,0.0,0.0,0.0,0.0,0.0,25013.0,-0.01,0.01,-1.0,-1.34,-1.71,-0.3,-11.1,46.81,-54.46,25022.0,-0.01,0.01,-1.01,-1.4,-1.71,-0.18,-10.35,46.81,-55.81,2065,1602848274.175657,1234,0.8494706841027286,-9.088314099011773,2.8224826200449735,0.8476612011202794,1.6060182616412955,2.7671166239352054,0.05084523321331036,1.9144312164152844,2.103913725429738,2064,1602848274.175657,4321,0.2112056314945221,1.7854775190353394,2.358307123184204,3.4352035522460938,4.019510746002197,5.102622985839844
,,133754.209675,5.297015190124512,0.0,0.0,0.0,0.0,0.0,0.0,0.0,0.0,0.0,0.0,0.0,25031.0,-0.01,0.01,-1.02,-1.4,-1.65,-0.24,-11.1,47.26,-55.51,25041.0,-0.02,0.01,-1.01,-1.4,-1.71,-0.18,-13.05,47.71,-55.36,2067,1602848274.195909,1234,0.6305342588216553,-9.636251141387119,2.0675659143098906,0.580036952110103,1.3868288923132117,2.436897083405842,0.3245359161117888,1.403756005975723,2.450155466099705,2066,1602848274.195909,4321,0.26812857389450073,1.5240660905838013,2.809946298599243,3.6705868244171143,4.313200950622559,5.1287455558776855
,,133754.280548,5.367851734161377,0.0,0.0,0.0,0.0,0.0,0.0,0.0,0.0,0.0,0.0,0.0,25104.0,-0.01,0.01,-1.0,-1.4,-1.52,-0.18,-10.95,46.66,-54.61,25114.0,-0.01,0.01,-1.0,-1.59,-1.59,-0.18,-10.95,46.66,-54.61,2075,1602848274.275563,1234,0.8521450464084288,-9.141936068890805,2.462134641351319,0.12078444487794493,1.2547405531275593,2.420784543734834,0.5184908969056019,1.1512550557087624,2.535009446400186,2074,1602848274.275563,4321,0.485218346118927,1.2226210832595825,2.0821468830108643,3.4617416858673096,4.186278820037842,5.678691864013672
,,133754.299945,5.387262582778931,0.0,0.0,0.0,0.0,0.0,0.0,0.0,0.0,0.0,0.0,0.0,25123.0,-0.0,0.01,-1.0,-1.46,-1.52,-0.24,-11.25,47.41,-54.61,25132.0,0.01,0.0,-1.01,-1.52,-1.59,0.0,-11.4,47.56,-53.41,2076,1602848274.28563,1234,0.7683189885005028,-9.870003051649478,2.558769602610733,0.21544578129196967,1.2493129110766643,2.086713116893703,0.9415393471543749,1.6095443875721434,2.960205539236288,2075,1602848274.28563,4321,0.2617795169353485,1.5429073572158813,2.5050692558288574,3.7320804595947266,4.369689464569092,5.906437397003174
,,133754.318786,5.40610671043396,0.0,0.0,0.0,0.0,0.0,0.0,0.0,0.0,0.0,0.0,0.0,25142.0,0.0,0.01,-1.01,-1.46,-1.59,-0.12,-10.65,46.36,-54.61,25151.0,0.01,0.01,-1.01,-1.46,-1.71,-0.12,-10.8,48.31,-54.16,2078,1602848274.305578,1234,0.4124812258873993,-9.982114224357057,2.811524364347386,0.9124359334373658,1.1627781524103682,2.398513515013735,0.8776151259505237,1.1169382107112082,2.9869110529646368,2077,1602848274.305578,4321,0.8896306157112122,1.9896632432937622,2.0151894092559814,3.9061436653137207,4.43153715133667,5.716994285583496
,,133754.337496,5.424816131591797,0.0,0.0,0.0,0.0,0.0,0.0,0.0,0.0,0.0,0.0,0.0,25161.0,-0.0,0.01,-1.0,-1.4,-1.52,-0.18,-10.65,46.66,-54.31,25170.0,-0.01,0.0,-1.01,-1.46,-1.65,-0.3,-12.0,47.41,-55.36,2080,1602848274.325614,1234,0.3270176300057338,-9.66776409199093,2.6371627875223758,0.5823015380917828,1.7969751810562635,2.0864118810250813,0.029551518082170825,1.2628344989434603,2.3042527046126198,2079,1602848274.325614,4321,0.6482683420181274,1.307189702987671,2.4645726680755615,3.0893497467041016,4.160529613494873,5.470394611358643
,,133754.356094,5.443405628204346,0.0,0.0,0.0,0.0,0.0,0.0,0.0,0.0,0.0,0.0,0.0,25179.0,0.0,0.01,-1.0,-1.4,-1.65,-0.18,-12.75,46.66,-54.91,25189.0,-0.01,0.01,-1.0,-1.34,-1.65,-0.3,-11.4,48.31,-55.06,2082,1602848274.345627,1234,0.4293369752851587,-9.707138326476931,2.8154525716543466,0.30892992496638827,1.285179641732738,2.4731775539395824,0.04624365934204033,1.0808904422940684,2.8030749999095206,2081,1602848274.345627,4321,0.38192060589790344,1.7884012460708618,2.2519776821136475,3.118095874786377,4.580099105834961,5.6143693923950195
,,133754.374859,5.462158441543579,0.0,0.0,0.0,0.0,0.0,0.0,0.0,0.0,0.0,0.0,0.0,25198.0,-0.0,0.01,-1.02,-1.4,-1.77,-0.12,-10.95,46.66,-56.71,25208.0,-0.01,0.01,-1.01,-1.4,-1.77,-0.24,-12.3,47.11,-55.66,2084,1602848274.365569,1234,0.9311776951756683,-9.935985091490668,2.2759852996670062,0.4525682332518338,1.098391513768831,2.7463769131829117,0.15865298112496262,1.6878384046505017,2.597182597245148,2083,1602848274.365569,4321,0.6044219136238098,1.5589210987091064,2.1501657962799072,3.01198673248291,4.373371124267578,5.978391170501709
,,133754.393568,5.480867385864258,0.0,0.0,0.0,0.0,0.0,0.0,0.0,0.0,0.0,0.0,0.0,25217.0,-0.0,0.0,-1.01,-1.52,-1.83,-0.3,-13.05,47.41,-54.91,25227.0,0.01,0.0,-1.01,-1.34,-1.71,-0.24,-12.3,46.66,-54.91,2086,1602848274.385511,1234,0.7090909962457755,-9.139751568357218,2.4934190971592542,0.6097854365209234,1.4365746055386035,2.924709529316943,0.994103372865625,1.5948538276079045,2.348096821136733,2085,1602848274.385511,4321,0.7586043477058411,1.198725700378418,2.818683624267578,3.9477953910827637,4.35626745223999,5.4813313484191895
,,133754.465334,5.552654504776001,0.0,0.0,0.0,0.0,0.0,0.0,0.0,0.0,0.0,0.0,0.0,25289.0,-0.01,0.0,-1.01,-1.4,-1.71,-0.12,-11.7,47.41,-53.56,25298.0,0.0,0.01,-1.01,-1.34,-1.71,-0.3,-11.25,47.11,-54.61,2093,1602848274.455599,1234,0.6648062368826358,-9.200289921955768,2.9569058638072594,0.8628139653669694,1.1382456035769022,2.7267557116448513,0.7489854758309606,1.9360748490447994,2.0294907224467313,2092,1602848274.455599,4321,0.5775169134140015,1.7629677057266235,2.9183061122894287,3.840503454208374,4.838047981262207,5.599146366119385
,,133754.484184,5.571497201919556,0.0,0.0,0.0,0.0,0.0,0.0,0.0,0.0,0.0,0.0,0.0,25308.0,-0.0,0.0,-1.01,-1.52,-1.71,-0.18,-11.4,46.81,-53.41,25317.0,-0.0,0.01,-1.01,-1.28,-1.65,-0.12,-11.25,46.36,-56.26,2095,1602848274.475615,1234,0.26207581447418427,-9.441228118919701,2.339854723442144,0.8749987532552659,1.3172505468522813,2.4063135347322135,0.9085533588144641,1.4994667550389849,2.4211438577670172,2094,1602848274.475615,4321,0.22709132730960846,1.0666972398757935,2.6404716968536377,3.3089988231658936,4.934586048126221,5.759274005889893
,,133754.502913,5.590222120285034,0.0,0.0,0.0,0.0,0.0,0.0,0.0,0.0,0.0,0.0,0.0,25326.0,0.0,0.01,-1.0,-1.34,-1.59,-0.18,-11.25,47.11,-53.86,25336.0,-0.01,0.01,-1.01,-1.46,-1.59,-0.18,-10.95,45.61,-55.66,2097,1602848274.495645,1234,0.9367127767920305,-9.785187656918037,2.8101388071594675,0.6954497410464828,1.7573787146250126,2.222694040151562,0.826697841908818,1.854511139443007,2.1686542625798695,2096,1602848274.495645,4321,0.867824375629425,1.4882651567459106,2.9234044551849365,3.6761460304260254,4.7708587646484375,5.690707683563232
,,133754.521725,5.6090288162231445,0.0,0.0,0.0,0.0,0.0,0.0,0.0,0.0,0.0,0.0,0.0,25345.0,-0.0,0.01,-1.01,-1.4,-1.65,-0.24,-11.4,48.31,-54.46,25355.0,-0.01,0.01,-1.0,-1.59,-1.65,-0.12,-12.0,47.41,-54.91,2099,1602848274.515558,1234,0.3008288585105736,-9.18192786757714,2.828381058193978,0.8055774402311697,1.4370550758672254,2.734459175506678,0.6532093738301415,1.0605099889928515,2.2893455758584835,2098,1602848274.515558,4321,0.7745009660720825,1.8967021703720093,2.186464309692383,3.96290922164917,4.445695877075195,5.246464729309082
,,133754.540958,5.628262042999268,0.0,0.0,0.0,0.0,0.0,0.0,0.0,0.0,0.0,0.0,0.0,25364.0,-0.01,0.0,-1.0,-1.59,-1.65,-0.24,-10.95,46.06,-55.66,25373.0,-0.01,0.01,-1.01,-1.34,-1.65,-0.18,-11.85,47.26,-55.66,2101,1602848274.535584,1234,0.44574793960089687,-9.860331070678711,2.648494450020621,0.7637640124540332,1.3668205883724198,2.9273255341329314,0.045858140922139246,1.4160303606849909,2.7169487648115207,2100,1602848274.535584,4321,0.3885655403137207,1.595192790031433,2.6606950759887695,3.2762632369995117,4.885489463806152,5.424991130828857
,,133754.559765,5.647069931030273,0.0,0.0,0.0,0.0,0.0,0.0,0.0,0.0,0.0,0.0,0.0,25383.0,-0.0,-0.0,-1.01,-1.59,-1.65,-0.18,-11.85,47.26,-55.51,25392.0,0.0,-0.01,-1.01,-1.46,-1.65,-0.3,-11.1,47.56,-54.46,2102,1602848274.54554,1234,0.13184368929518175,-9.078562542608955,2.2921239759926078,0.5355047906371502,1.2961486063658652,2.374990438347884,0.05570605274732121,1.6931248878592928,2.081987296984883,2101,1602848274.54554,4321,0.24425822496414185,1.8590619564056396,2.456296443939209,3.274017333984375,4.822966575622559,5.09672737121582
,,133754.578602,5.66591215133667,0.0,0.0,0.0,0.0,0.0,0.0,0.0,0.0,0.0,0.0,0.0,25402.0,-0.0,0.01,-1.01,-1.46,-1.71,-0.18,-10.95,47.11,-55.36,25411.0,-0.01,0.01,-0.99,-1.34,-1.65,-0.3,-11.25,47.41,-55.36,2104,1602848274.565567,1234,0.5068984309289153,-9.105466066240183,2.1208591124166514,0.7331774903170895,1.2859225073761353,2.990431199062074,0.29576256057398786,1.6643594974274811,2.266885591099234,2103,1602848274.565567,4321,0.17734338343143463,1.7274119853973389,2.7414846420288086,3.582521915435791,4.963467597961426,5.943968296051025
,,133754.652686,5.740001916885376,0.0,0.0,0.0,0.0,0.0,0.0,0.0,0.0,0.0,0.0,0.0,25475.0,0.01,0.01,-1.0,-1.46,-1.65,-0.18,-11.25,46.66,-53.26,25485.0,0.0,0.01,-1.01,-1.34,-1.71,-0.24,-10.2,47.11,-54.61,2111,1602848274.638178,1234,0.7258289762687085,-9.38580809705573,2.366652956257135,0.249598515550715,1.899388005845419,2.137333921953298,0.8708038725444338,1.8465139258159704,2.173905471777843,2110,1602848274.638178,4321,0.6614335179328918,1.4076974391937256,2.366472005844116,3.408979892730713,4.7689080238342285,5.0862298011779785
,,133754.67248,5.759791612625122,0.0,0.0,0.0,0.0,0.0,0.0,0.0,0.0,0.0,0.0,0.0,25495.0,-0.01,0.0,-1.01,-1.28,-1.65,-0.12,-12.0,47.41,-55.66,25505.0,0.0,0.01,-1.0,-1.52,-1.65,-0.12,-11.25,47.41,-54.61,2114,1602848274.665531,1234,0.6194525806648449,-9.67368946793147,2.429520827600838,0.8973201963173141,1.0240229476510452,2.3371687379257757,0.44828136157443044,1.1271380846965668,2.282880681988183,2113,1602848274.665531,4321,0.19897404313087463,1.886519432067871,2.700256109237671,3.378373384475708,4.330305576324463,5.975089073181152
,,133754.692224,5.779520750045776,0.0,0.0,0.0,0.0,0.0,0.0,0.0,0.0,0.0,0.0,0.0,25515.0,-0.0,0.01,-1.0,-1.4,-1.77,-0.24,-11.1,47.26,-55.06,25525.0,0.01,0.0,-1.0,-1.46,-1.71,-0.24,-10.95,47.71,-55.66,2116,1602848274.685775,1234,0.4929664320768121,-9.489690961715485,2.8931106168972294,0.993224457760589,1.9240949683163033,2.267697515288429,0.7276948838685818,1.7678879119850315,2.7807936999023517,2115,1602848274.685775,4321,0.06904284656047821,1.3393841981887817,2.240325689315796,3.1793055534362793,4.746123790740967,5.7946624755859375
,,133754.712518,5.799821376800537,0.0,0.0,0.0,0.0,0.0,0.0,0.0,0.0,0.0,0.0,0.0,25535.0,-0.0,0.01,-1.01,-1.4,-1.77,-0.12,-11.4,46.81,-55.06,25545.0,-0.0,0.0,-1.02,-1.34,-1.77,-0.18,-10.05,46.81,-55.51,2118,1602848274.705498,1234,0.4494631259321279,-9.290525150404282,2.146966619885037,0.5669723591722691,1.7961313606730944,2.9571212743792876,0.4789233784852662,1.585953974754,2.2747163029965245,2117,1602848274.705498,4321,0.14820991456508636,1.571038842201233,2.380401849746704,3.435004234313965,4.701440811157227,5.9039788246154785
,,133754.73312,5.820447683334351,0.0,0.0,0.0,0.0,0.0,0.0,0.0,0.0,0.0,0.0,0.0,25555.0,-0.0,0.01,-1.01,-1.46,-1.71,-0.18,-12.15,48.61,-55.06,25565.0,-0.01,0.0,-1.01,-1.4,-1.71,-0.18,-11.85,47.86,-54.76,2119,1602848274.715512,1234,0.6736478358731125,-9.198542436896826,2.0758292425203075,0.011103731101328007,1.3152618190143008,2.877032588070032,0.6982992539158579,1.8123858659442398,2.4274443511095973,2118,1602848274.715512,4321,0.9280500411987305,1.281006097793579,2.6080691814422607,3.157876491546631,4.140414237976074,5.832947731018066
,,133754.75262,5.839934825897217,0.0,0.0,0.0,0.0,0.0,0.0,0.0,0.0,0.0,0.0,0.0,25575.0,-0.01,0.0,-1.02,-1.4,-1.65,-0.12,-10.8,47.86,-54.76,25585.0,-0.0,0.0,-1.01,-1.4,-1.59,0.0,-12.0,46.66,-53.86,2121,1602848274.737905,1234,0.389761421521051,-9.582360488541093,2.8245546480615884,0.09825870004327941,1.9328893984328834,2.5504538555637386,0.7585222637673262,1.1623849979879917,2.9621109416384632,2120,1602848274.737905,4321,0.6178829669952393,1.7896605730056763,2.9413557052612305,3.6848113536834717,4.032566070556641,5.564309597015381
,,133754.772135,5.859431028366089,0.0,0.0,0.0,0.0,0.0,0.0,0.0,0.0,0.0,0.0,0.0,25595.0,0.0,0.01,-1.01,-1.46,-1.65,-0.12,-13.35,47.11,-55.36,25605.0,-0.0,0.01,-1.02,-1.52,-1.59,-0.24,-10.2,47.71,-55.96,2124,1602848274.765528,1234,0.7123870515032786,-9.958225522474962,2.7362969820724166,0.5323057200497298,1.8254247112528021,2.209898006441145,0.3864020310236804,1.8042280968164874,2.125644822037139,2123,1602848274.765528,4321,0.4523746371269226,1.3171104192733765,2.5056488513946533,3.7130210399627686,4.9422526359558105,5.498188495635986
,,133754.846272,5.933600187301636,0.0,0.0,0.0,0.0,0.0,0.0,0.0,0.0,0.0,0.0,0.0,25668.0,0.0,0.01,-1.0,-1.46,-1.59,-0.24,-11.85,47.56,-54.76,25678.0,-0.01,0.01,-1.01,-1.46,-1.59,-0.18,-11.25,46.36,-54.31,2130,1602848274.825515,1234,0.2855460967055876,-9.727908628534536,2.9502949460618435,0.5908636049948458,1.119103436560967,2.3966074691896533,0.5350213395495759,1.1760273965299732,2.6833509129898543,2130,1602848274.835659,4321,0.8398840427398682,1.8241220712661743,2.7142868041992188,3.4159462451934814,4.0318217277526855,5.621293067932129
,,133754.865594,5.9529128074646,0.0,0.0,0.0,0.0,0.0,0.0,0.0,0.0,0.0,0.0,0.0,25688.0,-0.01,0.01,-1.0,-1.34,-1.52,-0.24,-10.35,48.61,-56.11,25698.0,-0.01,0.0,-1.0,-1.4,-1.65,-0.24,-11.25,46.66,-55.66,2132,1602848274.845723,1234,0.04126002781189575,-9.525518164910103,2.7577595981694194,0.884748547389408,1.7101376053336197,2.6042316250415207,0.5435589240460691,1.9263139191189764,2.4950160405477164,2131,1602848274.845723,4321,0.021638773381710052,1.4083584547042847,2.8339827060699463,3.9869191646575928,4.017101764678955,5.420443058013916
